"Time (s)","Linear Acceleration x (m/s^2)","Linear Acceleration y (m/s^2)","Linear Acceleration z (m/s^2)","Absolute acceleration (m/s^2)"
3.143541689e-3,3.661864118e-1,-7.645924437e-1,-6.475919974e-1,1.066803397e0
1.311454165e-2,3.744860228e-1,-8.355992764e-1,-4.395767158e-1,1.015723201e0
2.308554167e-2,2.395932793e-1,-7.232269013e-1,-4.023129952e-1,8.615786884e-1
3.305654170e-2,2.555091445e-1,-6.760945424e-1,-2.726404631e-1,7.724775566e-1
4.302754166e-2,4.161662185e-1,-8.409904093e-1,-1.155234396e-2,9.383989805e-1
5.299854168e-2,4.306295988e-1,-6.971594292e-1,1.832610941e-1,8.396771699e-1
6.296954170e-2,5.286638702e-1,-6.920612419e-1,5.775312442e-1,1.044976836e0
7.294054166e-2,7.169231643e-1,-8.201465473e-1,1.015822742e0,1.489468034e0
8.291154169e-2,8.634724418e-1,-7.692260697e-1,1.604918025e0,1.978144401e0
9.288254171e-2,9.400080362e-1,-7.585046151e-1,2.142696388e0,2.459693512e0
1.028535417e-1,1.166147055e0,-8.650382531e-1,2.541782890e0,2.927259878e0
1.128245417e-1,1.443184040e0,-1.131230991e0,2.682415443e0,3.249279357e0
1.227955417e-1,1.635544717e0,-1.404549147e0,2.525049328e0,3.320186582e0
1.327665417e-1,1.672758882e0,-1.751897730e0,2.365619146e0,3.385767547e0
1.427375417e-1,1.658959892e0,-1.922646952e0,2.185712015e0,3.350530740e0
1.527085417e-1,1.725806431e0,-1.961242376e0,1.981938304e0,3.279170464e0
1.626795417e-1,1.910860427e0,-2.069508544e0,1.866933512e0,3.379303763e0
1.726505417e-1,1.943103729e0,-2.181549675e0,1.842728963e0,3.454049958e0
1.826215417e-1,1.883356294e0,-2.145030012e0,1.810158802e0,3.380067984e0
1.925925417e-1,1.806146881e0,-2.121834108e0,1.774074465e0,3.303284236e0
2.025635417e-1,1.605905765e0,-1.997499499e0,1.526905058e0,2.983349901e0
2.125345417e-1,1.286317569e0,-1.693212150e0,1.350708570e0,2.519125625e0
2.225055417e-1,1.060381887e0,-1.425128422e0,1.145988194e0,2.113927555e0
2.324765417e-1,1.101565728e0,-1.171834057e0,9.215808284e-1,1.853632470e0
2.424475417e-1,1.264647350e0,-9.217688164e-1,7.418888748e-1,1.731874641e0
2.524185417e-1,1.468547215e0,-6.494481960e-1,4.876946229e-1,1.678171602e0
2.623895417e-1,1.632655900e0,-4.454581377e-1,1.077963442e-1,1.695764810e0
2.723605417e-1,1.741857330e0,-3.026893044e-1,-3.411955583e-1,1.800583845e0
2.823315417e-1,1.845462829e0,-1.874064776e-1,-7.758986199e-1,2.010689660e0
2.923025417e-1,1.866310784e0,-9.288828313e-2,-1.165352418e0,2.202223974e0
3.022735417e-1,1.757891272e0,3.827090353e-2,-1.524239897e0,2.327005297e0
3.122445417e-1,1.708254844e0,1.978630534e-1,-1.776770031e0,2.472690062e0
3.222155417e-1,1.875651711e0,2.102486256e-1,-1.901755435e0,2.679355811e0
3.321865417e-1,2.061396702e0,2.404328299e-1,-1.894741116e0,2.810197182e0
3.421575417e-1,2.152102658e0,3.413660046e-1,-2.014133073e0,2.967289780e0
3.521285417e-1,2.142620521e0,4.185141680e-1,-2.290274264e0,3.164069059e0
3.621025417e-1,2.110586696e0,3.846049950e-1,-2.477807334e0,3.277503072e0
3.720735417e-1,1.891664895e0,4.466053614e-1,-2.253559012e0,2.975967179e0
3.820435417e-1,1.540835757e0,7.205167168e-1,-1.809529057e0,2.483488389e0
3.920145417e-1,1.239853986e0,8.690491506e-1,-1.205318722e0,1.935271959e0
4.019855417e-1,1.068115853e0,9.476705199e-1,-5.449312627e-1,1.528365458e0
4.119565417e-1,9.064181212e-1,1.180202592e0,3.385537863e-3,1.488114052e0
4.219275417e-1,7.578815943e-1,1.386525397e0,3.334731406e-1,1.614943195e0
4.318985417e-1,6.408846563e-1,1.589680181e0,4.899539870e-1,1.782658444e0
4.418695417e-1,6.045564902e-1,1.755787883e0,4.692788172e-1,1.915333456e0
4.518405417e-1,6.751470011e-1,1.856473136e0,4.147909534e-1,2.018506258e0
4.618115417e-1,7.447358841e-1,1.958382211e0,3.149684572e-1,2.118749053e0
4.717825417e-1,7.205620328e-1,2.103216865e0,2.578306353e-1,2.238125882e0
4.817535417e-1,6.250122432e-1,2.193376838e0,2.344827032e-1,2.292711145e0
4.917245417e-1,4.460219555e-1,2.281479467e0,2.138116264e-1,2.334480575e0
5.016955417e-1,2.125262623e-1,2.401959299e0,2.970438176e-1,2.429570109e0
5.116665417e-1,-6.827092052e-2,2.432657474e0,3.611772484e-1,2.460270779e0
5.216375417e-1,-2.892616121e-1,2.326974313e0,5.211401117e-1,2.402096741e0
5.316085417e-1,-3.528502285e-1,2.237276563e0,6.819566685e-1,2.365369866e0
5.415795417e-1,-3.166530401e-1,2.136971380e0,7.951979399e-1,2.302011205e0
5.515505417e-1,-4.339806381e-1,2.055171171e0,6.860257459e-1,2.209683023e0
5.615215417e-1,-6.629359683e-1,2.077288849e0,5.284128785e-1,2.243620563e0
5.714925417e-1,-8.283441974e-1,2.004049257e0,3.933766955e-1,2.203885832e0
5.814635417e-1,-9.592725652e-1,1.918712361e0,3.440495843e-1,2.172563254e0
5.914345417e-1,-9.276024373e-1,1.743292675e0,5.099245673e-1,2.039494716e0
6.014055417e-1,-8.407505272e-1,1.576468982e0,8.249982744e-1,1.967927349e0
6.113765417e-1,-7.045286020e-1,1.465029822e0,1.158985970e0,1.996477250e0
6.213475417e-1,-5.165143063e-1,1.287844570e0,1.557670183e0,2.086064971e0
6.313185417e-1,-2.914655739e-1,1.066368121e0,2.061006108e0,2.338768763e0
6.412895417e-1,1.724782437e-3,8.118744913e-1,2.604891304e0,2.728479773e0
6.512605417e-1,3.128425558e-1,5.138097498e-1,3.074184154e0,3.132487692e0
6.612315417e-1,5.234157018e-1,2.450033060e-1,3.438908908e0,3.487131356e0
6.712025417e-1,4.589828937e-1,1.998519838e-2,3.531259248e0,3.561019037e0
6.811735417e-1,4.102947369e-2,5.513631999e-2,3.117769884e0,3.118527294e0
6.911445417e-1,-9.328501672e-3,-3.745109466e-1,2.791560155e0,2.816585445e0
7.011155417e-1,-4.594476742e-1,-4.435276794e-1,2.209373358e0,2.299812949e0
7.110865417e-1,-7.458287287e-1,-1.428550798e-1,1.540323833e0,1.717342592e0
7.210575417e-1,-7.987474190e-1,-2.855788895e-1,1.245304322e0,1.506763284e0
7.310285417e-1,-6.756395560e-1,-2.681223196e-1,8.117724574e-1,1.089657244e0
7.409995417e-1,-2.962302507e-1,-4.900232765e-1,6.915238827e-1,8.978198335e-1
7.509705417e-1,3.219718136e-2,-5.374921426e-1,2.950317907e-1,6.139855205e-1
7.609415417e-1,4.962214713e-1,-6.407036850e-1,3.074232101e-2,8.109759866e-1
7.709125417e-1,7.981559732e-1,-9.027042621e-1,-2.274362236e-1,1.226236184e0
7.808835417e-1,8.843544569e-1,-1.008485656e0,-4.731689698e-1,1.422327317e0
7.908545417e-1,8.594769663e-1,-1.150609541e0,-6.421751368e-1,1.573210691e0
8.008255417e-1,8.062319282e-1,-1.313651841e0,-8.153287339e-1,1.743689200e0
8.107965417e-1,8.251614118e-1,-1.520086035e0,-8.912279320e-1,1.945723551e0
8.207675417e-1,8.626093197e-1,-1.713038889e0,-9.549789548e-1,2.142564323e0
8.307385417e-1,8.365371698e-1,-1.799114874e0,-1.044487547e0,2.242222781e0
8.407095417e-1,8.450373403e-1,-1.913285268e0,-1.159392352e0,2.391430377e0
8.506805417e-1,1.011277117e0,-2.033025427e0,-1.491848077e0,2.716888749e0
8.606505417e-1,1.107566140e0,-2.115078527e0,-2.036040251e0,3.137789004e0
8.706215417e-1,9.532680595e-1,-2.155778656e0,-2.334609023e0,3.317604693e0
8.805925417e-1,8.281974323e-1,-2.237927651e0,-2.659086222e0,3.572809916e0
8.905635417e-1,5.558709647e-1,-2.402940170e0,-2.959564694e0,3.852549437e0
9.005345417e-1,8.712746009e-2,-2.002615812e0,-3.751885804e0,4.253787533e0
9.105055417e-1,1.308630252e-1,-2.196086145e0,-4.021750594e0,4.584146303e0
9.204765417e-1,2.727891286e-1,-2.324533685e0,-4.311448554e0,4.905757780e0
9.304475417e-1,1.744410078e-1,-2.271817820e0,-4.207127795e0,4.784507306e0
9.404185417e-1,-3.400316700e-2,-1.959266894e0,-3.914430213e0,4.377516062e0
9.503895417e-1,2.430058971e-1,-2.148646515e0,-3.638298377e0,4.232369171e0
9.603605417e-1,-1.350655653e-1,-1.695739025e0,-3.759382519e0,4.126345898e0
9.703315417e-1,1.913755676e-1,-1.747555588e0,-3.683887364e0,4.081862473e0
9.803025417e-1,2.826280922e-1,-1.871377688e0,-3.365221127e0,3.860912629e0
9.902735417e-1,1.326569510e-1,-1.678482429e0,-3.217771890e0,3.631660374e0
1.000244542e0,-4.169357121e-2,-1.467935011e0,-2.752097881e0,3.119393258e0
1.010215542e0,-6.621290526e-1,-5.514529547e-1,-2.626546467e0,2.764283196e0
1.020186542e0,-5.124947110e-1,-4.374135384e-1,-2.053198906e0,2.160927388e0
1.030157542e0,-4.929015684e-1,-3.629764366e-1,-1.740965191e0,1.845444024e0
1.040128542e0,-3.462764964e-1,-5.598708987e-2,-1.489626719e0,1.530369148e0
1.050099542e0,-1.196802253e-1,-2.091022789e-2,-9.635930729e-1,9.712220158e-1
1.060070542e0,-3.793381155e-3,-2.932381573e-1,-4.369998479e-1,5.262811736e-1
1.070041542e0,-1.827974099e-1,5.759776390e-1,2.037205017e-1,6.377046154e-1
1.080012542e0,-2.343160576e-1,7.377882224e-1,4.968940473e-1,9.198582337e-1
1.089983542e0,-2.406067845e-1,3.742063066e-1,3.101380724e-1,5.423168895e-1
1.099954542e0,-1.595594054e-1,5.497201324e-1,2.426360607e-2,5.729224645e-1
1.109925542e0,-1.667418328e-1,9.555461347e-1,-6.544192064e-1,1.170100744e0
1.119896542e0,-2.290787065e-1,1.148205751e0,-1.219093593e0,1.690278879e0
1.129867542e0,-3.628533527e-1,1.201983763e0,-1.187584702e0,1.728231739e0
1.139838542e0,-7.893419534e-1,1.388123441e0,-3.058924091e-1,1.625889779e0
1.149809542e0,-9.252704215e-1,1.634809283e0,8.736149490e-1,2.071697329e0
1.159780542e0,-4.081198651e-1,1.780209656e0,1.703559968e0,2.497563775e0
1.169751542e0,6.918396324e-1,1.362359732e0,1.764057600e0,2.333787765e0
1.179722542e0,8.151509786e-1,1.360456463e0,1.977831804e0,2.535178801e0
1.189693542e0,1.885716523e0,2.511246099e0,9.613021338e-1,3.284263321e0
1.199664542e0,2.637146299e0,2.155869873e0,1.509314879e0,3.725633761e0
1.209635542e0,2.406864236e0,1.651256624e0,1.720992272e0,3.388430062e0
1.219606542e0,2.795810496e0,1.502447617e0,2.086857233e0,3.798536334e0
1.229577542e0,3.706885632e0,1.087002360e0,3.137773794e0,4.976765978e0
1.239548542e0,4.933533243e0,1.351146234e0,3.950392928e0,6.463045001e0
1.249519542e0,6.401320027e0,1.518839409e0,5.004221402e0,8.265954457e0
1.259490542e0,7.427396446e0,1.389496952e0,5.157934762e0,9.148836579e0
1.269461542e0,7.504208395e0,1.316329865e0,4.953071714e0,9.087287128e0
1.279432542e0,6.526857408e0,1.327210364e0,4.941481948e0,8.293346660e0
1.289403542e0,5.170140240e0,1.139257464e0,4.827275886e0,7.164555125e0
1.299374542e0,3.984977455e0,2.584954637e-1,4.470126784e0,5.994071962e0
1.309345542e0,2.608191472e0,4.944200903e-1,3.607813334e0,4.479222146e0
1.319316542e0,1.253010952e0,1.127096425e0,3.013912225e0,3.453121732e0
1.329287542e0,7.794279993e-1,5.987253544e-1,2.125795596e0,2.342004905e0
1.339258542e0,1.094542052e0,-1.873658395e-1,9.322385484e-1,1.449895504e0
1.349229542e0,7.624143559e-1,4.435542843e-1,-6.130829000e-1,1.074191182e0
1.359196917e0,5.277018571e-1,8.818630314e-1,-1.697067512e0,1.983983316e0
1.369167917e0,6.782723379e-1,-8.976119220e-2,-2.222228462e0,2.325168762e0
1.379138917e0,1.752527475e-1,5.301816612e-2,-3.087009145e0,3.092434302e0
1.389109917e0,-2.358082670e-1,1.661147189e-1,-3.231177217e0,3.244026178e0
1.399080917e0,-2.220193630e-1,-1.709182066e-1,-2.888604054e0,2.902161094e0
1.409050917e0,-3.155455774e-1,-9.019441241e-1,-2.955900829e0,3.106512824e0
1.419021917e0,-6.815391773e-1,-1.155789882e-1,-3.001656461e0,3.080226560e0
1.428992917e0,-5.410235685e-1,-6.359610084e-1,-2.861170673e0,2.980511789e0
1.438963917e0,-9.362988549e-1,-1.110641483e0,-2.848826031e0,3.197810158e0
1.448934917e0,-1.476902009e0,-1.033548576e0,-2.968888957e0,3.473292939e0
1.458905917e0,-1.705997672e0,-1.107758221e0,-3.210119639e0,3.800318991e0
1.468876917e0,-1.454035887e0,-1.310935809e0,-3.245876532e0,3.790578784e0
1.478847917e0,-5.726254302e-1,-1.787986745e0,-3.223630800e0,3.730494876e0
1.488818917e0,-1.456541419e-3,-1.879337795e0,-3.211601616e0,3.721061355e0
1.498789917e0,2.729994822e-1,-1.809634307e0,-3.269403681e0,3.746772675e0
1.508760917e0,2.779514891e-1,-2.037195661e0,-3.371848361e0,3.949276461e0
1.518731917e0,-3.195339632e-1,-1.874645990e0,-3.531762693e0,4.011202720e0
1.528702917e0,-5.660461432e-1,-1.665272985e0,-3.652016238e0,4.053487998e0
1.538673917e0,-7.274854285e-1,-1.696610552e0,-3.679578550e0,4.116675931e0
1.548644917e0,-6.745119935e-1,-1.598428200e0,-3.250304629e0,3.684347882e0
1.558615917e0,-5.332409245e-1,-1.526501600e0,-2.875852154e0,3.299254254e0
1.568586917e0,-8.038190746e-1,-1.343000770e0,-2.469462773e0,2.923700149e0
1.578557917e0,-5.817295450e-1,-9.333489347e-1,-2.096628515e0,2.367572729e0
1.588528917e0,-3.616210520e-1,-8.648470491e-1,-1.974500061e0,2.185722007e0
1.598499917e0,-4.124041200e-1,-8.520094872e-1,-1.630893695e0,1.885685968e0
1.608470917e0,-6.505349010e-1,-1.352630550e-1,-1.294530276e0,1.455094632e0
1.618441917e0,-5.621150601e-1,4.571546155e-1,-9.623628187e-1,1.204618561e0
1.628412917e0,-2.418659824e-1,6.428200847e-1,-6.583900505e-1,9.514169819e-1
1.638383917e0,1.508827221e-1,6.728221482e-1,-3.191930705e-1,7.598285696e-1
1.648354917e0,3.113344127e-1,1.037923463e0,-4.762475288e-1,1.183649416e0
1.658325917e0,8.105427879e-1,1.834153436e0,-1.707139049e0,2.633518971e0
1.668296917e0,2.222684544e-1,1.865359442e0,-1.414820951e0,2.351741362e0
1.678267917e0,-1.297082001e-1,1.917238278e0,-1.493858057e0,2.433975909e0
1.688238917e0,-7.852103108e-1,2.170910373e0,-1.302240707e0,2.650516542e0
1.698209917e0,-1.348835707e0,2.350382472e0,-1.039329134e0,2.902388770e0
1.708180917e0,-1.260798274e0,2.257537458e0,-5.569624937e-1,2.645051017e0
1.718151917e0,-4.405415064e-1,2.230597581e0,-3.857194743e-1,2.306170397e0
1.728122917e0,9.622178078e-2,2.280339260e0,6.632710138e-1,2.376790738e0
1.738093917e0,1.603832781e-1,2.423014246e0,2.223394396e0,3.292446427e0
1.748064917e0,8.394403124e-1,2.248912230e0,3.045352703e0,3.877684792e0
1.758035917e0,1.362246296e0,1.915716248e0,3.722566110e0,4.402633548e0
1.768006917e0,1.620129556e0,1.369244828e0,4.008137106e0,4.534844456e0
1.777977917e0,1.532476870e0,9.716680777e-1,3.995911163e0,4.388613703e0
1.787948917e0,1.148833449e0,7.309838176e-1,3.628067504e0,3.875181215e0
1.797919917e0,6.327739835e-1,4.741296673e-1,3.033001630e0,3.134374059e0
1.807890917e0,6.983329654e-2,3.253425872e-1,2.465934563e0,2.488284099e0
1.817861917e0,-5.106630707e-1,3.018911594e-1,1.953798578e0,2.041872652e0
1.827832917e0,-8.996204406e-1,1.781436110e-1,1.636749682e0,1.876166731e0
1.837803917e0,-9.146664959e-1,-1.139897150e-1,1.365341227e0,1.647350940e0
1.847774917e0,-5.982678097e-1,-4.839945048e-1,1.320940980e0,1.528744624e0
1.857745917e0,-2.835922980e-1,-7.413023990e-1,1.300528350e0,1.523590439e0
1.867716917e0,-1.051153958e-1,-9.530066890e-1,1.269663237e0,1.591010915e0
1.877687917e0,2.742227197e-2,-1.133686237e0,1.149181359e0,1.614501242e0
1.887658917e0,2.064026195e-1,-1.338743997e0,8.592974567e-1,1.604128938e0
1.897629917e0,3.414294469e-1,-1.675883342e0,4.223332769e-1,1.761682276e0
1.907600917e0,3.679366297e-1,-2.025992396e0,-2.765083963e-1,2.077613883e0
1.917571917e0,2.087146086e-1,-2.172297333e0,-8.308466595e-1,2.335111060e0
1.927542917e0,-2.131432897e-1,-2.179524491e0,-1.017473411e0,2.414748271e0
1.937513917e0,-6.453256166e-1,-2.195501423e0,-1.284677133e0,2.624322196e0
1.947484917e0,-1.063855864e0,-1.927952716e0,-1.611969767e0,2.728962716e0
1.957455917e0,-1.105859923e0,-2.356254246e0,-2.012356689e0,3.290051623e0
1.967426917e0,-1.242177231e0,-2.769195725e0,-2.271950845e0,3.791201640e0
1.977397917e0,-1.491740488e0,-2.562054602e0,-2.425995741e0,3.830779138e0
1.987368917e0,-1.820328864e0,-2.287233127e0,-2.247641630e0,3.687400907e0
1.997338917e0,-2.118470789e0,-2.238131719e0,-2.223006141e0,3.799856363e0
2.007309917e0,-2.232355254e0,-2.165715707e0,-2.468377529e0,3.970720606e0
2.017280917e0,-2.288735277e0,-1.993238633e0,-2.329657601e0,3.826044165e0
2.027251917e0,-2.451425282e0,-1.669453744e0,-1.970593536e0,3.560870764e0
2.037222917e0,-2.596892897e0,-1.344514030e0,-2.024466857e0,3.556689016e0
2.047193917e0,-2.398499209e0,-1.043315181e0,-1.947190640e0,3.260806098e0
2.057164917e0,-2.143570547e0,-8.353200719e-1,-1.617303012e0,2.812174131e0
2.067135917e0,-2.381848678e0,-4.203697819e-1,-1.317852480e0,2.754387235e0
2.077106917e0,-2.028995818e0,-1.204906493e-1,-9.222591054e-1,2.232017895e0
2.087077917e0,-1.521206069e0,-1.030557141e-1,-4.932138097e-1,1.602481902e0
2.097048917e0,-1.369501229e0,8.556289136e-2,-5.900600731e-2,1.373439599e0
2.107019917e0,-1.378816428e0,5.244969982e-1,2.070341188e-1,1.489662703e0
2.116990917e0,-1.421572731e0,1.040088102e0,4.514202511e-1,1.818359847e0
2.126961917e0,-1.265048907e0,1.403047874e0,7.510584784e-1,2.032973417e0
2.136932917e0,-9.956574494e-1,1.657966011e0,1.106232390e0,2.227989038e0
2.146903917e0,-7.441394681e-1,1.731961648e0,1.500638781e0,2.409429694e0
2.156874917e0,-7.509614146e-1,2.115263007e0,2.151508142e0,3.109223041e0
2.166845917e0,-8.558271343e-1,2.804746211e0,3.159824814e0,4.310862355e0
2.176816917e0,-3.841228920e-1,2.883848514e0,3.504058585e0,4.554399984e0
2.186787917e0,5.782779336e-2,2.978605275e0,3.783016380e0,4.815251434e0
2.196758917e0,2.911007077e-1,3.309817590e0,4.016538386e0,5.212697258e0
2.206729917e0,3.496208113e-1,3.429189082e0,4.045494382e0,5.314846872e0
2.216700917e0,2.634983414e-1,3.300679853e0,3.900597455e0,5.116500696e0
2.226671917e0,3.236901641e-2,3.157919206e0,3.742599841e0,4.896994490e0
2.236642917e0,-3.949425799e-1,3.055414300e0,3.632190376e0,4.762808322e0
2.246613917e0,-8.546430731e-1,2.918752883e0,3.521013756e0,4.652641298e0
2.256584917e0,-1.114665245e0,2.693442122e0,3.419760447e0,4.493536534e0
2.266555917e0,-1.216103327e0,2.470103335e0,3.422303401e0,4.392320384e0
2.276526917e0,-1.097508929e0,2.189025925e0,3.332138166e0,4.135154786e0
2.286497917e0,-7.186116940e-1,1.806753969e0,3.447994312e0,3.958462763e0
2.296468917e0,-2.428904146e-1,1.233375417e0,3.556297610e0,3.771930986e0
2.306439917e0,1.733915788e-1,5.668042347e-1,3.519015178e0,3.568585084e0
2.316410917e0,4.387639529e-1,-7.283496469e-2,3.375096490e0,3.404275996e0
2.326381917e0,5.019390249e-1,-5.619905144e-1,3.274015088e0,3.359605769e0
2.336352917e0,3.620028752e-1,-9.095519364e-1,3.123268021e0,3.273092412e0
2.346323917e0,1.450957328e-1,-1.199571202e0,2.573500527e0,2.843049208e0
2.356294417e0,4.277413666e-2,-1.366749529e0,2.073555987e0,2.483841447e0
2.366265417e0,8.280826807e-3,-1.415669966e0,2.019128349e0,2.465982424e0
2.376236417e0,-9.154634714e-2,-1.446350015e0,1.993950824e0,2.464984581e0
2.386207417e0,-1.985278818e-1,-1.503545724e0,1.939874019e0,2.462351371e0
2.396178417e0,-1.933688834e-1,-1.618111682e0,1.722886770e0,2.371500740e0
2.406149417e0,-1.202772260e-3,-1.775809042e0,1.263412564e0,2.179383056e0
2.416120417e0,2.352603829e-1,-1.945866830e0,6.930295408e-1,2.078950484e0
2.426091417e0,2.465788382e-1,-2.028621596e0,2.890079892e-1,2.063887672e0
2.436062417e0,8.882973075e-2,-1.876237309e0,7.463678420e-2,1.879821218e0
2.446033417e0,-9.693718761e-2,-1.728254221e0,-1.803795862e-1,1.740343721e0
2.456004417e0,-2.062672564e-1,-1.655360492e0,-4.789506966e-1,1.735557060e0
2.465975417e0,-1.953309166e-1,-1.657969520e0,-7.504012513e-1,1.830333066e0
2.475946417e0,-4.788372606e-2,-1.796709037e0,-1.000681962e0,2.057138936e0
2.485917417e0,3.261927724e-2,-1.937063847e0,-1.155782865e0,2.255906558e0
2.495888417e0,9.858697951e-3,-2.035590308e0,-1.237475485e0,2.382240683e0
2.505859417e0,-1.925575823e-1,-2.041426999e0,-1.290831327e0,2.422962676e0
2.515830417e0,-5.067971841e-1,-1.904356862e0,-1.291058199e0,2.355896797e0
2.525801417e0,-8.052370244e-1,-1.780245032e0,-1.274594194e0,2.332867206e0
2.535772417e0,-9.022853091e-1,-1.631267917e0,-1.275394093e0,2.258712884e0
2.545743417e0,-6.774107507e-1,-1.597211102e0,-1.339863739e0,2.192077432e0
2.555714417e0,-3.761075288e-1,-1.647707364e0,-1.365657561e0,2.172882189e0
2.565685417e0,-3.468015763e-1,-1.648821843e0,-1.100971066e0,2.012715104e0
2.575656417e0,-4.069042289e-1,-1.542241720e0,-7.976409066e-1,1.783342813e0
2.585627417e0,-3.968268451e-1,-1.455972777e0,-6.821899724e-1,1.656113351e0
2.595598417e0,-3.794059432e-1,-1.456130652e0,-7.337144673e-1,1.674097448e0
2.605569417e0,-4.863351452e-1,-1.440453390e0,-7.975040817e-1,1.716811173e0
2.615540417e0,-6.973494637e-1,-1.355783953e0,-8.826009500e-1,1.761655710e0
2.625511417e0,-9.293938780e-1,-1.221947619e0,-9.891015512e-1,1.826266914e0
2.635482417e0,-1.123127335e0,-1.107683669e0,-1.107367335e0,1.927340275e0
2.645453417e0,-1.295637739e0,-9.808540535e-1,-1.200638611e0,2.020466505e0
2.655424417e0,-1.450177017e0,-9.438862020e-1,-1.357890705e0,2.199500332e0
2.665395417e0,-1.535504850e0,-9.491346627e-1,-1.494623165e0,2.343614763e0
2.675366417e0,-1.514045277e0,-8.894486243e-1,-1.456790510e0,2.281598244e0
2.685337417e0,-1.561101914e0,-7.832590950e-1,-1.396306327e0,2.236113896e0
2.695308417e0,-1.760144936e0,-6.531041676e-1,-1.294292879e0,2.280317808e0
2.705279417e0,-1.870272857e0,-5.615665913e-1,-1.091510271e0,2.237112484e0
2.715250417e0,-1.940868046e0,-5.022337246e-1,-8.569386899e-1,2.180264067e0
2.725221417e0,-2.039838018e0,-4.621183169e-1,-5.395459771e-1,2.160000541e0
2.735191417e0,-2.011424350e0,-5.383671784e-1,-2.763762492e-1,2.100488269e0
2.745162417e0,-2.027550679e0,-6.524843627e-1,-1.678665447e-1,2.136557225e0
2.755133417e0,-2.161544888e0,-6.149744743e-1,1.139166248e-1,2.250210413e0
2.765104417e0,-2.330958606e0,-5.115413225e-1,3.716642296e-1,2.415197062e0
2.775075417e0,-2.491141325e0,-4.094249636e-1,3.559252793e-1,2.549528722e0
2.785046417e0,-2.532199304e0,-2.778877544e-1,2.747665107e-1,2.562177112e0
2.795017417e0,-2.336266708e0,-2.123305267e-1,2.822749203e-1,2.362817284e0
2.804988417e0,-1.948881655e0,-3.042452484e-1,3.203777164e-1,1.998335997e0
2.814959417e0,-1.569816604e0,-5.052310073e-1,7.833783782e-1,1.825722932e0
2.824930417e0,-1.285838390e0,-5.946127152e-1,1.663001926e0,2.184609817e0
2.834901417e0,-1.113666248e0,-6.010048914e-1,2.688343350e0,2.971304320e0
2.844872417e0,-9.831549329e-1,-7.291314197e-1,3.468136801e0,3.677798134e0
2.854843417e0,-9.104755041e-1,-8.858256894e-1,3.895584052e0,4.097466034e0
2.864814417e0,-8.921120310e-1,-1.000276165e0,3.978258419e0,4.197970501e0
2.874785417e0,-8.702188861e-1,-1.059473961e0,3.640777597e0,3.890376266e0
2.884756417e0,-9.271403611e-1,-1.126094213e0,3.046771238e0,3.377942036e0
2.894727417e0,-9.977694637e-1,-1.096083963e0,2.576702462e0,2.972598112e0
2.904698417e0,-1.100954694e0,-9.592637944e-1,2.315918983e0,2.737840207e0
2.914669417e0,-1.050537077e0,-9.048969680e-1,2.117185571e0,2.530798573e0
2.924640417e0,-9.492568696e-1,-7.806231701e-1,1.965667841e0,2.318256069e0
2.934611417e0,-9.050639060e-1,-6.679134107e-1,2.048809401e0,2.337278109e0
2.944582417e0,-8.273897856e-1,-6.510301602e-1,2.185207985e0,2.425602619e0
2.954553417e0,-6.798233119e-1,-6.995152724e-1,2.287167054e0,2.486486373e0
2.964524417e0,-5.759943035e-1,-7.544755912e-1,2.258899274e0,2.450230354e0
2.974495417e0,-6.227623808e-1,-8.010510027e-1,1.986996730e0,2.231069631e0
2.984466417e0,-8.052607056e-1,-8.861203891e-1,1.653445821e0,2.041454685e0
2.994437417e0,-1.038584783e0,-9.811452448e-1,1.328930615e0,1.951245992e0
3.004408417e0,-1.277212577e0,-1.087487386e0,1.036948147e0,1.972095901e0
3.014379417e0,-1.406343657e0,-1.093403599e0,8.990655398e-1,1.995407918e0
3.024350417e0,-1.502049421e0,-1.058866435e0,8.081413364e-1,2.007596327e0
3.034321417e0,-1.517852691e0,-1.056701211e0,6.552617902e-1,1.962106586e0
3.044292417e0,-1.455338647e0,-1.069603677e0,4.738618648e-1,1.867246012e0
3.054263417e0,-1.381512871e0,-1.043842015e0,3.885264301e-1,1.774580726e0
3.064234417e0,-1.240599067e0,-9.791244471e-1,3.749375010e-1,1.624299498e0
3.074205417e0,-1.082571632e0,-8.328294504e-1,2.388763011e-1,1.386588663e0
3.084176417e0,-1.125421198e0,-6.536830419e-1,2.168258661e-1,1.319427091e0
3.094147417e0,-1.188319112e0,-4.825829870e-1,2.082836688e-2,1.282740220e0
3.104118417e0,-1.235369025e0,-3.797658393e-1,-1.678373086e-1,1.303275904e0
3.114089417e0,-1.277918336e0,-3.343455452e-1,-2.567892462e-1,1.345660780e0
3.124060417e0,-1.305486204e0,-2.444747177e-1,-3.096036369e-1,1.363787567e0
3.134031417e0,-1.291289164e0,-2.000928891e-1,-2.336629236e-1,1.327427298e0
3.144002417e0,-1.237381929e0,-1.506953189e-1,-8.255917668e-2,1.249255432e0
3.153973417e0,-1.180356959e0,-1.188089901e-1,1.695704234e-1,1.198379011e0
3.163944417e0,-1.045403806e0,-1.175816596e-1,3.847912288e-1,1.120160191e0
3.173915417e0,-7.954490778e-1,-1.238992837e-1,6.469341856e-1,1.032770114e0
3.183886417e0,-6.149586868e-1,-4.450695902e-2,8.832242632e-1,1.077144445e0
3.193857417e0,-5.127625135e-1,7.825153291e-2,8.915495288e-1,1.031459771e0
3.203828417e0,-5.038800082e-1,1.542311302e-1,8.605961233e-1,1.009112477e0
3.213799417e0,-5.506524709e-1,2.422676861e-1,7.734772879e-1,9.798871824e-1
3.223770417e0,-6.080013773e-1,3.740285513e-1,7.617343247e-1,1.043935924e0
3.233741417e0,-5.874487066e-1,4.528253371e-1,7.916328925e-1,1.084817683e0
3.243712417e0,-4.741659200e-1,4.945259249e-1,8.725168419e-1,1.109357855e0
3.253683417e0,-3.989774510e-1,5.599568528e-1,9.617979777e-1,1.182281706e0
3.263654417e0,-2.719762194e-1,6.175528041e-1,1.042207133e0,1.241586984e0
3.273625417e0,-1.672517100e-1,6.725429437e-1,1.094576551e0,1.295524979e0
3.283596417e0,-6.259064287e-2,6.773090091e-1,1.062813306e0,1.261838819e0
3.293567417e0,1.071820942e-1,6.480162129e-1,1.017380440e0,1.210981409e0
3.303538417e0,2.370946544e-1,6.472452575e-1,9.269503266e-1,1.155152460e0
3.313509417e0,3.171243256e-1,6.354028916e-1,8.366231239e-1,1.097380027e0
3.323480417e0,4.153426382e-1,5.926954132e-1,7.116827434e-1,1.015031865e0
3.333451417e0,6.027929699e-1,4.673264319e-1,5.966025227e-1,9.683428776e-1
3.343422417e0,8.076001766e-1,2.995060802e-1,3.329556620e-1,9.234616452e-1
3.353393417e0,7.182591069e-1,2.962746164e-1,2.099425238e-1,8.048295821e-1
3.363364542e0,5.090942627e-1,4.464547956e-1,2.908814371e-1,7.369605575e-1
3.373335542e0,4.524648562e-1,4.365782636e-1,3.344759381e-1,7.121791766e-1
3.383306542e0,6.030259815e-1,2.372121835e-1,3.455634284e-1,7.343868445e-1
3.393277542e0,7.000371364e-1,7.677335680e-2,2.826818866e-1,7.588512302e-1
3.403248542e0,8.247199470e-1,-1.033904672e-2,3.098275852e-1,8.810578979e-1
3.413219542e0,9.467718029e-1,-5.952407062e-2,4.221391493e-1,1.038326260e0
3.423190542e0,1.092119258e0,-1.363237399e-1,4.217742831e-1,1.178644214e0
3.433161542e0,1.313179386e0,-2.326069164e-1,5.065255809e-1,1.426574303e0
3.443132542e0,1.512122420e0,-3.486548513e-1,6.473323810e-1,1.681402281e0
3.453103542e0,1.692143572e0,-4.641274202e-1,8.634378701e-1,1.955578964e0
3.463074542e0,1.959078614e0,-6.545238715e-1,1.169979320e0,2.373866493e0
3.473045542e0,2.208413537e0,-8.793422967e-1,1.305100288e0,2.711755887e0
3.483016542e0,2.272115736e0,-9.869608855e-1,1.364522032e0,2.828165851e0
3.492987542e0,2.085682235e0,-9.673914242e-1,1.308244336e0,2.645263653e0
3.502958542e0,1.816824336e0,-9.751787460e-1,1.055689643e0,2.316528626e0
3.512929542e0,1.615667838e0,-1.005223494e0,8.015257967e-1,2.064776123e0
3.522900542e0,1.569349996e0,-1.018215423e0,5.357347620e-1,1.945927489e0
3.532871542e0,1.606628335e0,-9.798758143e-1,1.942830956e-1,1.891866047e0
3.542842542e0,1.670843042e0,-9.183549196e-1,-4.613160789e-2,1.907149799e0
3.552813542e0,1.803776566e0,-8.619146705e-1,-2.861077702e-1,2.019496090e0
3.562784542e0,1.910185659e0,-7.728276622e-1,-5.809834403e-1,2.140937553e0
3.572755542e0,2.003173637e0,-6.370716870e-1,-9.909896171e-1,2.323924563e0
3.582726542e0,2.127103618e0,-5.248770672e-1,-1.195164447e0,2.495693049e0
3.592697542e0,2.261133496e0,-3.863547742e-1,-1.190552748e0,2.584455560e0
3.602668542e0,2.408939998e0,-2.319701546e-1,-1.119155906e0,2.666329313e0
3.612639542e0,2.586458541e0,-1.502640867e-1,-9.614027059e-1,2.763447529e0
3.622610542e0,2.643130048e0,-1.947122812e-4,-8.604973054e-1,2.779674819e0
3.632581542e0,2.680912416e0,9.893547356e-2,-9.341371393e-1,2.840720297e0
3.642552542e0,2.765618691e0,5.680686951e-2,-1.016031488e0,2.946895612e0
3.652523542e0,2.907501963e0,-3.258127034e-2,-1.049334889e0,3.091234853e0
3.662494542e0,2.955811951e0,-9.799348712e-2,-1.147690319e0,3.172320930e0
3.672465542e0,2.872478895e0,-1.039576471e-1,-1.252398748e0,3.135354019e0
3.682436542e0,2.746438946e0,-1.071572435e-1,-1.345485252e0,3.060186289e0
3.692407542e0,2.562255746e0,-7.177983463e-2,-1.423243865e0,2.931881640e0
3.702378542e0,2.437611820e0,-7.551211238e-2,-1.494579896e0,2.860318606e0
3.712349542e0,2.480055881e0,-1.587372869e-1,-1.593746334e0,2.952270665e0
3.722320542e0,2.557994880e0,-2.829929584e-1,-1.658269190e0,3.061581213e0
3.732291542e0,2.541425040e0,-3.164320153e-1,-1.862610666e0,3.166747377e0
3.742262542e0,2.357834163e0,-2.800699353e-1,-2.010416583e0,3.111204903e0
3.752233542e0,2.076024681e0,-2.992780387e-1,-2.110405725e0,2.975442512e0
3.762204542e0,1.710754090e0,-2.262504083e-1,-2.164083749e0,2.767874144e0
3.772175542e0,1.212920102e0,-8.001271427e-2,-2.165199398e0,2.483075843e0
3.782146542e0,7.894667915e-1,6.201556921e-2,-2.104111197e0,2.248196538e0
3.792117542e0,4.314189729e-1,2.032889771e-1,-1.964805377e0,2.021857786e0
3.802088542e0,8.070005447e-2,3.083739674e-1,-1.671863966e0,1.701980060e0
3.812059542e0,-1.791651195e-1,4.017464000e-1,-1.373218011e0,1.441952848e0
3.822030542e0,-3.282480687e-1,4.296159840e-1,-1.262046070e0,1.372981052e0
3.832001542e0,-5.386384892e-1,4.912421286e-1,-1.198328961e0,1.402655535e0
3.841972542e0,-9.017690000e-1,6.582467937e-1,-1.152221326e0,1.604397131e0
3.851943542e0,-1.238925302e0,8.187288898e-1,-1.174237263e0,1.893168256e0
3.861914542e0,-1.554839546e0,1.002708607e0,-1.102235819e0,2.153572465e0
3.871885542e0,-1.925937765e0,1.229313941e0,-1.040920161e0,2.510769568e0
3.881856542e0,-2.363504793e0,1.523222482e0,-1.096444151e0,3.018037676e0
3.891827542e0,-2.654313432e0,1.852910720e0,-1.135980100e0,3.430613461e0
3.901798542e0,-2.699970831e0,2.093397344e0,-1.201187664e0,3.621464722e0
3.911769542e0,-2.471391477e0,2.173310655e0,-1.111366246e0,3.473642176e0
3.921739542e0,-1.989577983e0,2.068629708e0,-7.927590662e-1,2.977602451e0
3.931711542e0,-1.326619503e0,1.828489823e0,-2.168638730e-1,2.269432590e0
3.941682542e0,-8.792823628e-1,1.774633459e0,3.595756960e-1,2.012897431e0
3.951652542e0,-8.490461183e-1,1.862901272e0,8.156936002e-1,2.203777781e0
3.961623542e0,-9.776360384e-1,1.859298218e0,9.333156055e-1,2.298660503e0
3.971594542e0,-1.222729684e0,1.762985805e0,8.324546438e-1,2.301340384e0
3.981566542e0,-1.540055154e0,1.573025556e0,7.456831330e-1,2.324268188e0
3.991536542e0,-1.888383730e0,1.280291721e0,7.175977868e-1,2.391670251e0
4.001508542e0,-2.242454858e0,8.879131454e-1,7.731784952e-1,2.532745255e0
4.011479542e0,-2.661074568e0,4.977875018e-1,1.038101803e0,2.899442292e0
4.021450542e0,-2.996839817e0,1.178097010e-1,1.530993431e0,3.367323700e0
4.031420542e0,-2.949903924e0,-2.875344908e-1,2.233260403e0,3.711072793e0
4.041391542e0,-2.558701808e0,-7.162289536e-1,2.940880501e0,3.963422382e0
4.051362542e0,-2.193537636e0,-1.021729599e0,3.658734981e0,4.386556781e0
4.061333542e0,-2.055740690e0,-1.224405203e0,4.108023922e0,4.754061256e0
4.071304542e0,-1.935081056e0,-1.523911284e0,4.048361272e0,4.738783946e0
4.081276542e0,-1.933221788e0,-1.701688274e0,3.604486853e0,4.430058119e0
4.091247542e0,-2.087202803e0,-1.777587472e0,2.854531744e0,3.957850963e0
4.101217542e0,-2.319132320e0,-1.866906030e0,1.994169509e0,3.583353859e0
4.111188542e0,-2.497650445e0,-2.012846101e0,1.257587568e0,3.445480179e0
4.121159542e0,-2.578377104e0,-2.048769640e0,8.268097419e-1,3.395452824e0
4.131130542e0,-2.526542122e0,-1.926853439e0,5.432139355e-1,3.223547836e0
4.141101542e0,-2.478182141e0,-1.899325333e0,5.262266046e-1,3.166344561e0
4.151072542e0,-2.293281195e0,-2.012497022e0,8.654627609e-1,3.171483674e0
4.161043542e0,-1.939447172e0,-2.143316193e0,1.316959611e0,3.176419723e0
4.171014542e0,-1.579130926e0,-2.059580557e0,1.690356370e0,3.097229603e0
4.180985542e0,-1.140980054e0,-1.938320999e0,1.966564804e0,2.987691568e0
4.190956542e0,-6.080129255e-1,-1.884547665e0,2.058911635e0,2.856626811e0
4.200927542e0,-1.024354707e-1,-1.759423097e0,1.898388024e0,2.590355139e0
4.210898542e0,3.464715010e-1,-1.592526020e0,1.395222838e0,2.145420330e0
4.220869542e0,5.984155981e-1,-1.412301970e0,5.974497843e-1,1.646099732e0
4.230840542e0,7.090194829e-1,-1.230701485e0,-2.087222099e-1,1.435583412e0
4.240811542e0,8.386719882e-1,-1.070269675e0,-8.615889806e-1,1.609715333e0
4.250782542e0,9.268241729e-1,-9.294903570e-1,-1.335779459e0,1.872768575e0
4.260753542e0,9.089999592e-1,-7.459480119e-1,-1.652921911e0,2.028514285e0
4.270724542e0,8.356226653e-1,-5.657800949e-1,-1.904821715e0,2.155624764e0
4.280695542e0,6.476840910e-1,-3.831276959e-1,-2.156422142e0,2.283952269e0
4.290666542e0,4.318069357e-1,-2.573763067e-1,-2.246504347e0,2.302060289e0
4.300637542e0,2.577255316e-1,-1.521673554e-1,-2.283010853e0,2.302545528e0
4.310608542e0,7.945839822e-2,-4.418740869e-2,-2.351515662e0,2.353272630e0
4.320579542e0,-5.904182151e-2,1.932153940e-2,-2.376410767e0,2.377222622e0
4.330550542e0,-1.729925063e-1,2.187794209e-2,-2.346948402e0,2.353417059e0
4.340521542e0,-3.312545608e-1,5.186480284e-3,-2.332425672e0,2.355836582e0
4.350492542e0,-5.160676521e-1,-4.943002224e-2,-2.359381921e0,2.415668065e0
4.360464292e0,-7.014980632e-1,-1.568270016e-1,-2.468098032e0,2.570642359e0
4.370435292e0,-8.882402971e-1,-2.667944169e-1,-2.688829839e0,2.844284794e0
4.380406292e0,-1.050361368e0,-3.275575125e-1,-3.000812123e0,3.196158057e0
4.390377292e0,-1.150792851e0,-4.442240828e-1,-3.425311208e0,3.640661492e0
4.400348292e0,-1.264556572e0,-6.154083377e-1,-3.728633181e0,3.985039040e0
4.410319292e0,-1.343479657e0,-6.780425423e-1,-3.738340729e0,4.029872291e0
4.420290292e0,-1.328302917e0,-6.648529780e-1,-3.579016966e0,3.875020073e0
4.430261292e0,-1.221898210e0,-7.137357008e-1,-3.385702754e0,3.669528175e0
4.440232292e0,-1.114430479e0,-8.533946925e-1,-3.143844958e0,3.442963682e0
4.450203292e0,-8.486394444e-1,-1.068682156e0,-2.761545812e0,3.080325589e0
4.460174292e0,-2.781976569e-1,-1.327460625e0,-2.201833958e0,2.586043006e0
4.470145292e0,3.954705834e-2,-1.376116476e0,-1.849422271e0,2.305563545e0
4.480116292e0,6.768853784e-2,-1.353265557e0,-1.518958692e0,2.035471669e0
4.490087292e0,1.469250342e-1,-1.286399723e0,-1.350762949e0,1.871088388e0
4.500058292e0,4.527507851e-1,-1.137697427e0,-1.452674655e0,1.899895356e0
4.510029292e0,8.952689427e-1,-1.177751439e0,-1.791120853e0,2.323083908e0
4.520000292e0,1.317052874e0,-1.268906900e0,-1.961396450e0,2.681758570e0
4.529971292e0,1.771236227e0,-1.292069768e0,-1.784985954e0,2.827171185e0
4.539942292e0,2.016857291e0,-1.350826976e0,-1.203354058e0,2.709337159e0
4.549913292e0,2.385585049e0,-1.490774528e0,-4.583913016e-1,2.850183731e0
4.559884292e0,3.230879593e0,-1.324817391e0,4.783232903e-1,3.524559155e0
4.569855292e0,3.941383538e0,-1.068650289e0,1.152634724e0,4.243239852e0
4.579826292e0,4.502477090e0,-9.525965068e-1,1.540493402e0,4.853128885e0
4.589797292e0,4.742664337e0,-7.853790030e-1,2.138718528e0,5.261539901e0
4.599768292e0,4.615972130e0,-2.545830917e-1,2.910252786e0,5.462744963e0
4.609739292e0,4.625269203e0,-4.121471348e-1,3.438312492e0,5.777973110e0
4.619710292e0,4.245997161e0,-2.840752780e-1,4.168308131e0,5.956843403e0
4.629682292e0,3.524131492e0,1.022531837e-2,4.909349159e0,6.043286895e0
4.639653292e0,2.568489463e0,2.421332002e-2,5.260978489e0,5.854538331e0
4.649624292e0,1.649296637e0,-1.457389265e-2,5.362266882e0,5.610195889e0
4.659594292e0,9.251698494e-1,1.010539198e-1,5.043017094e0,5.128174388e0
4.669565292e0,2.954258931e-1,4.771345514e-1,4.260124034e0,4.296928045e0
4.679537292e0,-1.355343658e-1,1.057956609e0,3.362194608e0,3.527321127e0
4.689508292e0,-1.424334955e-1,1.246794192e0,2.415291243e0,2.721840342e0
4.699479292e0,9.734327674e-2,1.156205619e0,1.720753706e0,2.075398868e0
4.709449292e0,1.803994668e-1,1.194506051e0,1.529652080e0,1.949159860e0
4.719420292e0,-5.544154465e-2,1.328026928e0,1.507219237e0,2.009586802e0
4.729391292e0,-5.130370402e-1,1.356236528e0,1.510169157e0,2.093608227e0
4.739363292e0,-1.007303934e0,1.266528837e0,1.568296328e0,2.253510569e0
4.749334292e0,-1.544820342e0,1.186387046e0,1.555040690e0,2.492415628e0
4.759305292e0,-2.078258318e0,1.105151386e0,1.454020684e0,2.766711653e0
4.769275292e0,-2.496767516e0,1.008200165e0,1.235071110e0,2.962383541e0
4.779247292e0,-2.794593106e0,9.711052832e-1,9.654220819e-1,3.112046898e0
4.789218292e0,-2.932309068e0,1.048193513e0,7.891478258e-1,3.212460179e0
4.799189292e0,-2.961630515e0,1.305790844e0,6.001927131e-1,3.291895553e0
4.809160292e0,-2.867726571e0,1.433160889e0,3.679752213e-1,3.226950818e0
4.819131292e0,-2.691254094e0,1.417233658e0,1.765204239e-1,3.046729279e0
4.829102292e0,-2.472510341e0,1.492748402e0,-2.179783523e-2,2.888265972e0
4.839073292e0,-2.276499394e0,1.555053847e0,-1.700896561e-1,2.762168070e0
4.849044292e0,-2.128020462e0,1.611932344e0,-1.604932058e-1,2.674426114e0
4.859015292e0,-2.042896112e0,1.672594722e0,-1.795533746e-1,2.646362984e0
4.868986292e0,-2.106790976e0,1.720264732e0,-1.617690682e-2,2.719952326e0
4.878957292e0,-2.196831080e0,1.793188136e0,2.968070054e-1,2.851260227e0
4.888928292e0,-2.167323107e0,1.814872828e0,6.507600188e-1,2.900782900e0
4.898899292e0,-1.945613646e0,1.727083609e0,1.006594082e0,2.789527181e0
4.908870292e0,-1.637692838e0,1.685576271e0,1.295638908e0,2.683632869e0
4.918841292e0,-1.479439116e0,1.810554366e0,1.609387051e0,2.838480913e0
4.928812292e0,-1.344477192e0,1.904359347e0,1.798471388e0,2.944266084e0
4.938783292e0,-1.170610819e0,1.932456095e0,1.873475962e0,2.935068726e0
4.948754292e0,-9.570506233e-1,1.927669711e0,1.895407698e0,2.867826137e0
4.958725292e0,-7.952096343e-1,1.914551190e0,1.855754220e0,2.782388964e0
4.968696292e0,-7.021669847e-1,1.940772151e0,1.919018755e0,2.818202973e0
4.978667292e0,-6.033677512e-1,1.993413318e0,2.148341875e0,2.992176818e0
4.988638292e0,-5.349611753e-1,2.029006636e0,2.378700537e0,3.171950131e0
4.998609292e0,-4.667826408e-1,2.032319960e0,2.545019324e0,3.290187504e0
5.008580292e0,-3.201186848e-1,2.017116030e0,2.706133504e0,3.390337976e0
5.018551292e0,-8.148387372e-2,1.928369184e0,2.924563261e0,3.504043036e0
5.028522292e0,1.812935060e-1,1.844976340e0,3.229876211e0,3.724097927e0
5.038493292e0,5.187076700e-1,1.789727023e0,3.520928972e0,3.983606568e0
5.048464292e0,9.739157474e-1,1.703146716e0,3.797822700e0,4.274655293e0
5.058435292e0,1.546450546e0,1.630392297e0,4.094780563e0,4.670858186e0
5.068406292e0,2.017497561e0,1.653986250e0,4.324901828e0,5.050816048e0
5.078377292e0,2.626944662e0,1.294103868e0,4.145384706e0,5.075407121e0
5.088348292e0,2.988017830e0,1.032319492e0,3.994845800e0,5.094381911e0
5.098319292e0,3.030472709e0,1.052251480e0,3.689162722e0,4.888856677e0
5.108290292e0,2.881676858e0,1.029390621e0,3.346857947e0,4.534883094e0
5.118261292e0,2.729276783e0,8.954613161e-1,3.084029696e0,4.214503754e0
5.128232292e0,2.661430956e0,8.014456898e-1,2.972870033e0,4.069826306e0
5.138203292e0,2.786995234e0,5.969401994e-1,2.920939157e0,4.081123080e0
5.148174292e0,2.952113587e0,3.078757846e-1,2.861386435e0,4.122777518e0
5.158145292e0,3.078721301e0,1.423691761e-1,2.835805451e0,4.188148325e0
5.168116292e0,3.291617254e0,-2.723633051e-2,2.798683818e0,4.320661648e0
5.178087292e0,3.500005880e0,-3.375626832e-1,2.768263094e0,4.475183827e0
5.188058292e0,3.747339009e0,-7.738082403e-1,2.999160284e0,4.861716904e0
5.198029292e0,3.947383951e0,-1.339326672e0,3.207851504e0,5.259842893e0
5.208000292e0,3.929184492e0,-1.954764831e0,3.267089646e0,5.471148972e0
5.217971292e0,3.743689469e0,-2.583292274e0,3.087460257e0,5.497364883e0
5.227942292e0,3.362882826e0,-3.134421293e0,2.536265457e0,5.250354294e0
5.237913292e0,2.923207292e0,-3.890732617e0,1.644833457e0,5.136965863e0
5.247884292e0,2.456225553e0,-4.369027841e0,5.597656488e-1,5.043291170e0
5.257855292e0,1.979662275e0,-4.528552748e0,-4.975220382e-1,4.967331365e0
5.267826292e0,1.637267745e0,-4.731427158e0,-1.441469051e0,5.210075013e0
5.277797292e0,1.506101249e0,-4.940270405e0,-2.200588501e0,5.614018382e0
5.287768292e0,1.552459729e0,-5.057321137e0,-2.795039833e0,5.983216189e0
5.297739292e0,1.655631511e0,-5.138256542e0,-3.237004552e0,6.294520987e0
5.307710292e0,1.707259501e0,-5.225323337e0,-3.451094506e0,6.490669632e0
5.317681292e0,1.729272222e0,-5.240738937e0,-3.555221137e0,6.564702914e0
5.327652292e0,1.763004224e0,-5.185798498e0,-3.567019649e0,6.536384256e0
5.337623292e0,1.809977246e0,-5.122628104e0,-3.461806020e0,6.442160914e0
5.347594292e0,1.824336546e0,-5.125665733e0,-3.336655140e0,6.382313104e0
5.357565292e0,1.815202026e0,-5.129343047e0,-3.299586132e0,6.363362878e0
5.367535333e0,1.761533065e0,-5.123688789e0,-3.275869240e0,6.331390434e0
5.377506333e0,1.601700886e0,-5.100465987e0,-3.111663637e0,6.185681014e0
5.387477333e0,1.449845772e0,-5.041160018e0,-2.898741957e0,5.993167111e0
5.397448333e0,1.371612366e0,-4.952940152e0,-2.748240473e0,5.828015299e0
5.407419333e0,1.342266945e0,-4.862484895e0,-2.657171259e0,5.701403249e0
5.417390333e0,1.193109736e0,-4.729872968e0,-2.501848161e0,5.482194210e0
5.427361333e0,1.024226653e0,-4.489346582e0,-2.352817252e0,5.170978824e0
5.437332333e0,8.443627909e-1,-4.182671231e0,-2.296435475e0,4.845751030e0
5.447303333e0,6.222028023e-1,-3.862459576e0,-2.319303351e0,4.548065340e0
5.457274333e0,4.664084190e-1,-3.522648638e0,-2.390144708e0,4.282450462e0
5.467245333e0,2.770255825e-1,-3.143940852e0,-2.531104705e0,4.045688851e0
5.477216333e0,9.372385025e-2,-2.666676493e0,-2.698468974e0,3.794954872e0
5.487187333e0,1.893913150e-3,-2.146248572e0,-2.812223046e0,3.537652467e0
5.497158333e0,1.888668197e-1,-1.812139839e0,-2.929549767e0,3.449896130e0
5.507129333e0,5.790158522e-1,-1.687543859e0,-2.915749753e0,3.418283233e0
5.517100333e0,1.052548519e0,-1.609501072e0,-2.618810601e0,3.249080031e0
5.527071333e0,1.410489333e0,-1.592052396e0,-2.199434261e0,3.059676790e0
5.537042333e0,1.533087027e0,-1.361016042e0,-1.826142166e0,2.745453644e0
5.547013333e0,1.579595780e0,-7.788087791e-1,-1.508347750e0,2.318788235e0
5.556984333e0,1.738518424e0,-6.145137137e-1,-1.421931750e0,2.328510965e0
5.566955333e0,1.886531625e0,-7.632236105e-1,-1.428977644e0,2.486662213e0
5.576926333e0,1.895670238e0,-7.605660510e-1,-1.246383718e0,2.392801442e0
5.586897333e0,1.851196024e0,-5.759753001e-1,-1.031388030e0,2.196004447e0
5.596868333e0,1.837372329e0,-5.631201965e-1,-9.320438361e-1,2.135824698e0
5.606839333e0,1.763669930e0,-6.801785302e-1,-7.909435058e-1,2.049089086e0
5.616810333e0,1.635599535e0,-6.404572248e-1,-5.040908003e-1,1.827424097e0
5.626781333e0,1.578738286e0,-4.839401257e-1,-1.916629583e-1,1.662331889e0
5.636752333e0,1.566356514e0,-3.858355415e-1,-6.407963634e-3,1.613190273e0
5.646723333e0,1.572232966e0,-4.086887991e-1,5.591692328e-3,1.624492013e0
5.656694333e0,1.640190476e0,-5.153171620e-1,-5.349091351e-2,1.720069142e0
5.666665333e0,1.719776051e0,-6.204778737e-1,-6.053680837e-2,1.829285971e0
5.676636333e0,1.674442003e0,-7.398686618e-1,-2.055764079e-2,1.830733262e0
5.686607333e0,1.533122110e0,-8.095736119e-1,1.269559157e-1,1.738387368e0
5.696578333e0,1.455838584e0,-7.233271810e-1,3.093574691e-1,1.654802174e0
5.706549333e0,1.515098945e0,-8.061562067e-1,4.143149900e-1,1.765522459e0
5.716520333e0,1.701787092e0,-1.190675248e0,6.318898845e-1,2.170961003e0
5.726491333e0,1.874419702e0,-1.492503842e0,1.220200471e0,2.688848476e0
5.736462333e0,2.144622461e0,-1.602033885e0,2.102133084e0,3.403657088e0
5.746433333e0,2.534714776e0,-1.623384701e0,2.971742105e0,4.229823640e0
5.756404333e0,2.985035750e0,-1.687964274e0,3.719223842e0,5.058882071e0
5.766375333e0,3.361281273e0,-1.782499426e0,4.387952355e0,5.807722606e0
5.776346333e0,3.576832446e0,-1.994871468e0,4.629614854e0,6.181146837e0
5.786317333e0,3.527881311e0,-2.280819901e0,4.559318458e0,6.199634729e0
5.796288333e0,3.149912029e0,-2.481670005e0,4.356677352e0,5.921255724e0
5.806259333e0,2.501213738e0,-2.530072671e0,4.000755581e0,5.353819488e0
5.816230333e0,1.855434963e0,-2.453436139e0,3.458981230e0,4.628880960e0
5.826201333e0,1.253468204e0,-2.461216737e0,2.888357302e0,3.996420682e0
5.836172333e0,6.937265289e-1,-2.564241168e0,2.262307032e0,3.489215151e0
5.846143333e0,2.274198514e-1,-2.537244574e0,1.719234014e0,3.073287395e0
5.856114333e0,-2.412631345e-1,-2.410337482e0,1.210757217e0,2.708111467e0
5.866085333e0,-6.381078136e-1,-2.223790253e0,7.061729121e-1,2.418905714e0
5.876056333e0,-8.147712019e-1,-2.122508876e0,2.279513633e-1,2.284919663e0
5.886027333e0,-8.145358515e-1,-2.123184230e0,-1.037278515e-1,2.276431285e0
5.895998333e0,-7.081396231e-1,-2.053664344e0,-1.602049381e-1,2.178225100e0
5.905969333e0,-6.345763877e-1,-1.909568485e0,-1.875576282e-1,2.020969286e0
5.915940333e0,-6.574843168e-1,-1.719377271e0,-2.845085567e-1,1.862656422e0
5.925912333e0,-8.137596336e-1,-1.427300078e0,-3.689534605e-1,1.683899317e0
5.935883333e0,-8.773527816e-1,-1.166230670e0,-4.974115258e-1,1.541836601e0
5.945854333e0,-8.935580474e-1,-9.199003386e-1,-6.477434403e-1,1.436744299e0
5.955824333e0,-9.302294451e-1,-6.102054852e-1,-7.000169635e-1,1.314420520e0
5.965796333e0,-9.501918393e-1,-2.855908763e-1,-7.365550447e-1,1.235694143e0
5.975767333e0,-9.199985719e-1,-5.145023525e-2,-8.327551907e-1,1.241984584e0
5.985738333e0,-8.421428955e-1,1.601815492e-1,-8.891580176e-1,1.235097067e0
5.995709333e0,-7.682668340e-1,3.453362641e-1,-9.876450098e-1,1.298049972e0
6.005680333e0,-6.919852281e-1,4.552253267e-1,-1.015601717e0,1.310542064e0
6.015651333e0,-6.819607615e-1,5.911558414e-1,-8.421399719e-1,1.234396792e0
6.025622333e0,-6.672936058e-1,7.905356625e-1,-6.610692447e-1,1.227697005e0
6.035593333e0,-6.241946563e-1,9.356106377e-1,-5.961183733e-1,1.272927079e0
6.045564333e0,-6.060027990e-1,1.003205620e0,-5.673471487e-1,1.302130445e0
6.055535333e0,-6.336560360e-1,1.047632765e0,-4.692267770e-1,1.311193407e0
6.065506333e0,-7.085617921e-1,1.181725207e0,-1.817583597e-1,1.389809476e0
6.075477333e0,-8.456398228e-1,1.317183559e0,5.084680259e-2,1.566098539e0
6.085448333e0,-9.726527488e-1,1.407593792e0,1.597564566e-1,1.718399191e0
6.095419333e0,-1.020051448e0,1.445729917e0,2.642269045e-1,1.788981780e0
6.105390333e0,-1.105152117e0,1.517406256e0,3.864863366e-1,1.916573671e0
6.115361333e0,-1.274453861e0,1.640004242e0,3.707321835e-1,2.109807790e0
6.125332333e0,-1.440561563e0,1.756872541e0,2.461648554e-1,2.285260572e0
6.135303333e0,-1.562174878e0,1.870095686e0,1.786885715e-1,2.443271952e0
6.145274333e0,-1.572673554e0,1.978267714e0,2.447141612e-1,2.539041212e0
6.155245333e0,-1.487390452e0,2.018735709e0,4.057821482e-1,2.540134518e0
6.165216333e0,-1.396819420e0,2.047426242e0,5.427432346e-1,2.537248298e0
6.175187333e0,-1.310553109e0,2.084158158e0,6.679672050e-1,2.550969397e0
6.185158333e0,-1.215983751e0,2.082402824e0,7.880391937e-1,2.536931961e0
6.195129333e0,-1.151061239e0,2.029341096e0,9.452784240e-1,2.517283965e0
6.205100333e0,-1.005025566e0,1.970943199e0,1.039385267e0,2.444384425e0
6.215071333e0,-9.552587441e-1,1.959022481e0,1.158038721e0,2.468064429e0
6.225042333e0,-9.749717546e-1,1.981757040e0,1.286348267e0,2.555899597e0
6.235013333e0,-1.019404162e0,2.072911624e0,1.364122083e0,2.682718118e0
6.244984333e0,-9.565021545e-1,2.178745935e0,1.424042010e0,2.773035496e0
6.254955333e0,-8.050604385e-1,2.222895629e0,1.640658545e0,2.877698342e0
6.264926333e0,-6.032332653e-1,2.322439213e0,2.042682688e0,3.151216723e0
6.274897333e0,-3.349589181e-1,2.794560654e0,2.690577571e0,3.893709593e0
6.284868333e0,1.609650761e-1,3.267743365e0,3.374314132e0,4.700005566e0
6.294839333e0,9.450340104e-1,3.166382174e0,3.896300921e0,5.108838049e0
6.304810333e0,1.766394732e0,2.598943224e0,4.269484257e0,5.301240614e0
6.314781333e0,2.369372474e0,1.835183131e0,4.729274213e0,5.598915754e0
6.324752333e0,2.560512691e0,1.077666695e0,5.027157106e0,5.743683427e0
6.334723333e0,2.344429421e0,4.712326643e-1,4.930171679e0,5.479507489e0
6.344694333e0,1.906331466e0,3.965610892e-2,4.362077256e0,4.760608181e0
6.354665333e0,1.334417642e0,-2.464712495e-1,3.442490328e0,3.700291634e0
6.364636917e0,7.026444098e-1,-3.380304605e-1,2.399994927e0,2.523479623e0
6.374607917e0,1.755556333e-1,-3.403450808e-1,1.376194829e0,1.428484078e0
6.384578917e0,-1.309472251e-1,-3.514083052e-1,3.897028899e-1,5.408357561e-1
6.394549917e0,-3.027474841e-1,-2.740882337e-1,-4.752634424e-1,6.266224850e-1
6.404520917e0,-2.306691492e-1,-3.687435454e-1,-1.071194120e0,1.156130140e0
6.414491917e0,-1.186180785e-1,-5.044667763e-1,-1.497112325e0,1.584267114e0
6.424462917e0,-1.093955576e-2,-5.173882458e-1,-1.709269774e0,1.785892895e0
6.434433917e0,1.722104412e-1,-5.339829361e-1,-1.873941400e0,1.956131535e0
6.444404917e0,4.270081258e-1,-6.714527303e-1,-1.936263363e0,2.093394497e0
6.454375917e0,6.626509166e-1,-8.485754174e-1,-1.863110602e0,2.151828895e0
6.464346917e0,7.658367312e-1,-1.003369050e0,-1.699663968e0,2.117100128e0
6.474317917e0,7.934996161e-1,-1.207031956e0,-1.567926199e0,2.131891262e0
6.484288917e0,7.304403189e-1,-1.503316221e0,-1.522636591e0,2.260956635e0
6.494259917e0,5.930333823e-1,-1.772317084e0,-1.566079064e0,2.438319108e0
6.504230917e0,4.152484980e-1,-1.988132844e0,-1.667163974e0,2.627648994e0
6.514201917e0,2.126421833e-1,-2.175660651e0,-1.811075061e0,2.838786509e0
6.524172917e0,1.755860388e-2,-2.332733236e0,-1.956346795e0,3.044543551e0
6.534143917e0,-1.669000000e-1,-2.449948860e0,-2.120371719e0,3.244392278e0
6.544114917e0,-3.012313011e-1,-2.574106298e0,-2.287243068e0,3.456623263e0
6.554085917e0,-3.565225723e-1,-2.623280212e0,-2.452802301e0,3.609009081e0
6.564056917e0,-4.094530302e-1,-2.590085569e0,-2.624465443e0,3.709988396e0
6.574027917e0,-5.217862290e-1,-2.548832001e0,-2.787848343e0,3.813253705e0
6.583998917e0,-5.582471269e-1,-2.502844527e0,-2.922934227e0,3.888369205e0
6.593969917e0,-5.428391290e-1,-2.451045213e0,-3.050541523e0,3.950708865e0
6.603941917e0,-5.586684188e-1,-2.380305013e0,-3.179163895e0,4.010616589e0
6.613912917e0,-6.195949441e-1,-2.264054180e0,-3.216423522e0,3.981861311e0
6.623883917e0,-5.623135731e-1,-2.149642881e0,-3.260998017e0,3.946044745e0
6.633854917e0,-5.047585523e-1,-2.077424505e0,-3.341338175e0,3.966738530e0
6.643825917e0,-5.569408590e-1,-1.947643214e0,-3.339491040e0,3.905854275e0
6.653796917e0,-5.533436519e-1,-1.765119454e0,-3.146707755e0,3.650151446e0
6.663767917e0,-4.821517548e-1,-1.577510955e0,-2.813795947e0,3.261665029e0
6.673738917e0,-3.821684602e-1,-1.405650762e0,-2.451574970e0,2.851688383e0
6.683709917e0,-3.036038089e-1,-1.288080797e0,-2.139867505e0,2.516020738e0
6.693680917e0,-2.602554756e-1,-1.110311993e0,-1.922087958e0,2.234937975e0
6.703651917e0,-1.879578701e-1,-8.372654405e-1,-1.720664828e0,1.922765984e0
6.713622917e0,8.138300925e-2,-6.353648847e-1,-1.646012256e0,1.766258214e0
6.723593917e0,3.046136230e-1,-3.166787678e-1,-1.548124604e0,1.609274585e0
6.733564917e0,7.630236357e-1,-2.437426463e-1,-1.370222483e0,1.587175226e0
6.743535917e0,1.292213902e0,-5.960028908e-1,-1.131011721e0,1.817752383e0
6.753506917e0,1.623232966e0,-1.529406497e-1,-8.878657830e-1,1.856497173e0
6.763477917e0,1.837807069e0,4.790702721e-1,-3.175997043e-1,1.925594122e0
6.773448917e0,2.253007912e0,5.296378702e-1,2.423542249e-1,2.327078962e0
6.783419917e0,2.591515798e0,3.989107928e-1,6.864227718e-1,2.710398527e0
6.793390917e0,2.674907326e0,4.875469807e-1,1.325998821e0,3.025079195e0
6.803361917e0,2.452910182e0,7.088576612e-1,1.954970945e0,3.215767240e0
6.813332917e0,2.045753646e0,8.458944690e-1,2.359669020e0,3.235534471e0
6.823303917e0,1.672793089e0,7.914232698e-1,2.576289648e0,3.172042853e0
6.833274917e0,1.310325067e0,7.400265366e-1,2.607419055e0,3.010519089e0
6.843245917e0,1.045465202e0,8.223734593e-1,2.607842978e0,2.927480247e0
6.853216917e0,9.467171314e-1,7.825738013e-1,2.498728672e0,2.784302436e0
6.863187917e0,9.309819818e-1,5.120488608e-1,2.213703806e0,2.455484886e0
6.873158917e0,9.280285531e-1,2.588287550e-1,1.905242130e0,2.134988734e0
6.883129917e0,9.400498438e-1,9.072013557e-2,1.638586292e0,1.891266478e0
6.893100917e0,9.763318169e-1,-4.492240369e-2,1.554015673e0,1.835812232e0
6.903071917e0,8.682378495e-1,-2.475310573e-1,1.567786451e0,1.809160840e0
6.913042917e0,6.725666249e-1,-4.323793781e-1,1.699106144e0,1.877833720e0
6.923013917e0,4.411490321e-1,-5.859547430e-1,1.829241191e0,1.970806627e0
6.932984917e0,1.885674423e-1,-6.791459119e-1,1.927232339e0,2.052077323e0
6.942955917e0,-8.963021457e-2,-7.173966426e-1,1.802064502e0,1.941681742e0
6.952926917e0,-2.730778348e-1,-7.826006985e-1,1.435320119e0,1.657461674e0
6.962897917e0,-4.127555376e-1,-8.684229138e-1,9.881724286e-1,1.378771279e0
6.972868917e0,-5.929228699e-1,-9.290336895e-1,5.026927310e-1,1.211346816e0
6.982839917e0,-8.368599361e-1,-8.963313818e-1,7.114248812e-2,1.228334544e0
6.992810917e0,-1.031852884e0,-7.618018600e-1,-3.880440348e-1,1.340015157e0
7.002781917e0,-1.126412886e0,-5.918352878e-1,-8.237148106e-1,1.515777387e0
7.012752917e0,-1.102441640e0,-4.905960113e-1,-1.159103499e0,1.673195427e0
7.022723917e0,-9.794027746e-1,-3.960927272e-1,-1.494907340e0,1.830537407e0
7.032694917e0,-8.647201645e-1,-2.293090868e-1,-1.716726728e0,1.935839425e0
7.042665917e0,-7.904377216e-1,-2.590842783e-2,-1.914609954e0,2.071519808e0
7.052636917e0,-7.228959489e-1,1.666725433e-1,-2.035596448e0,2.166566682e0
7.062607917e0,-7.012425399e-1,3.319689444e-1,-2.087089952e0,2.226631750e0
7.072578917e0,-6.589174694e-1,4.975904506e-1,-2.059501619e0,2.218854526e0
7.082549917e0,-5.746871585e-1,6.641361094e-1,-2.022440797e0,2.204905640e0
7.092520917e0,-4.636040944e-1,8.030554283e-1,-2.012102920e0,2.215487517e0
7.102491917e0,-3.644364864e-1,9.671347314e-1,-1.875686794e0,2.141579905e0
7.112462917e0,-2.768422723e-1,1.264633462e0,-1.582553594e0,2.044606396e0
7.122434917e0,-1.246486044e-1,1.502583565e0,-1.377438532e0,2.042212416e0
7.132405917e0,6.202843308e-2,1.480580492e0,-1.245775023e0,1.935954939e0
7.142376917e0,1.233932072e-1,1.543880110e0,-1.021165928e0,1.855147306e0
7.152347917e0,1.385714096e-1,1.616590821e0,-7.780755383e-1,1.799435873e0
7.162318917e0,1.487128204e-1,1.610309742e0,-5.121833467e-1,1.696332735e0
7.172289917e0,1.670800942e-1,1.640270583e0,-2.258066046e-1,1.664149021e0
7.182260917e0,1.391526228e-1,1.724554396e0,4.775537968e-2,1.730818272e0
7.192231917e0,1.168682992e-1,1.756730454e0,1.655931473e-1,1.768383776e0
7.202202917e0,8.272933066e-2,1.736261983e0,2.567418838e-1,1.757090268e0
7.212173917e0,-3.612234414e-2,1.744884287e0,4.599799901e-1,1.804856668e0
7.222144917e0,-1.831260234e-1,1.812249767e0,6.776151109e-1,1.943436800e0
7.232115917e0,-2.739677811e-1,1.932331403e0,8.934007573e-1,2.146422118e0
7.242086917e0,-2.391324091e-1,2.076160044e0,1.004044111e0,2.318561928e0
7.252057917e0,-4.979956627e-2,2.119715661e0,1.051787211e0,2.366839838e0
7.262028917e0,2.162399751e-1,2.148260891e0,1.117665451e0,2.431246726e0
7.271999917e0,4.061996394e-1,2.169222575e0,1.222603092e0,2.522951257e0
7.281970917e0,5.004579252e-1,2.211347378e0,1.412855117e0,2.671455585e0
7.291941917e0,6.256625998e-1,2.205910052e0,1.626976646e0,2.811502419e0
7.301912917e0,7.581727856e-1,2.132061473e0,1.805385720e0,2.894810822e0
7.311883917e0,9.115364814e-1,2.076356511e0,1.972365827e0,3.005392166e0
7.321854917e0,9.444843721e-1,1.990548913e0,2.099446288e0,3.043355126e0
7.331825917e0,7.829421759e-1,1.922305183e0,2.144919500e0,2.984783966e0
7.341796917e0,4.517552966e-1,1.972724846e0,2.231248961e0,3.012340965e0
7.351767917e0,3.047861159e-2,2.101734596e0,2.212187038e0,3.051555136e0
7.361739333e0,-3.254408205e-1,2.181020502e0,2.249692833e0,3.150219040e0
7.371710333e0,-4.528691912e-1,2.222130228e0,2.406743199e0,3.306866505e0
7.381681333e0,-3.376194012e-1,2.333500975e0,2.629157249e0,3.531526795e0
7.391652333e0,1.622409385e-1,2.361327582e0,2.880503322e0,3.728201907e0
7.401623333e0,1.029143869e0,2.177135027e0,3.010265316e0,3.854964501e0
7.411594333e0,1.884381019e0,1.649103094e0,3.118218366e0,3.999214750e0
7.421565333e0,2.375786285e0,8.506856775e-1,3.515688697e0,4.327596747e0
7.431536333e0,2.339353454e0,3.097664818e-1,3.901190947e0,4.559366257e0
7.441507333e0,1.850403726e0,-9.427728921e-2,4.021240132e0,4.427556251e0
7.451478333e0,1.191758444e0,-4.730426699e-1,3.696080562e0,3.912169357e0
7.461449333e0,5.035303447e-1,-6.980444053e-1,2.961501877e0,3.084039910e0
7.471420333e0,-1.525521022e-1,-7.654704031e-1,2.028555230e0,2.173534772e0
7.481391333e0,-6.644635534e-1,-7.347786605e-1,1.114312073e0,1.491007341e0
7.491362333e0,-9.403158921e-1,-7.505366144e-1,4.063440657e-1,1.269887667e0
7.501333333e0,-1.069680276e0,-8.481131950e-1,-1.419206947e-1,1.372462520e0
7.511304333e0,-1.062951300e0,-9.396966720e-1,-5.685692167e-1,1.528452242e0
7.521275333e0,-9.866036206e-1,-9.762598962e-1,-9.197085500e-1,1.665032704e0
7.531246333e0,-8.290623817e-1,-9.820632577e-1,-1.210948421e0,1.765839391e0
7.541217333e0,-5.469193161e-1,-1.059002675e0,-1.414204654e0,1.849481605e0
7.551189333e0,-2.596707541e-1,-1.245641414e0,-1.562391225e0,2.014973392e0
7.561160333e0,-1.033109450e-1,-1.478932454e0,-1.590217540e0,2.174098935e0
7.571131333e0,-6.812093943e-2,-1.651638739e0,-1.594268491e0,2.296572012e0
7.581102333e0,-1.342663971e-1,-1.806646380e0,-1.628539022e0,2.436008611e0
7.591073333e0,-2.645859236e-1,-2.029282039e0,-1.735828997e0,2.683485348e0
7.601044333e0,-3.981711200e-1,-2.254261263e0,-1.894515998e0,2.971434830e0
7.611015333e0,-5.601363623e-1,-2.393808573e0,-1.969525834e0,3.150095910e0
7.620986333e0,-7.003809527e-1,-2.433132268e0,-1.922378565e0,3.179025866e0
7.630957333e0,-8.077957660e-1,-2.398596273e0,-1.852953404e0,3.136755394e0
7.640928333e0,-7.576702175e-1,-2.320499399e0,-1.861298550e0,3.069725381e0
7.650899333e0,-5.000793180e-1,-2.909975335e0,-1.805668141e0,3.460993096e0
7.660870333e0,-4.593976074e-1,-2.967171337e0,-1.968123672e0,3.590078369e0
7.670841333e0,-5.526387700e-1,-2.576270645e0,-2.000537712e0,3.308282210e0
7.680812333e0,-6.387799510e-1,-2.548882287e0,-1.928692389e0,3.259554428e0
7.690783333e0,-7.134617588e-1,-2.567740434e0,-2.100722151e0,3.393427791e0
7.700754333e0,-7.218282473e-1,-2.449384019e0,-2.291134390e0,3.430716380e0
7.710725333e0,-7.097192484e-1,-2.269850525e0,-2.320040685e0,3.322425559e0
7.720696333e0,-7.177430901e-1,-2.035264326e0,-2.208251862e0,3.087690448e0
7.730667333e0,-7.532169780e-1,-1.737645727e0,-2.174793509e0,2.883829970e0
7.740638333e0,-6.822385043e-1,-1.433893983e0,-2.163037097e0,2.683324583e0
7.750609333e0,-2.536121616e-1,-1.609879095e0,-2.070627701e0,2.635057666e0
7.760580333e0,1.584653914e-1,-1.843361924e0,-2.047171011e0,2.759348403e0
7.770551333e0,3.421194184e-1,-1.633939218e0,-2.271705846e0,2.819122295e0
7.780522333e0,4.604530299e-1,-1.217213713e0,-2.135762175e0,2.501021049e0
7.790493333e0,5.794713503e-1,-1.158008316e0,-1.786465884e0,2.206406731e0
7.800464333e0,6.860351014e-1,-1.246301857e0,-1.648289162e0,2.177330852e0
7.810435333e0,7.726440597e-1,-1.211351295e0,-1.860753005e0,2.350904623e0
7.820406333e0,9.735304159e-1,-1.033157982e0,-1.724201224e0,2.233393550e0
7.830377333e0,1.132235543e0,-8.641196555e-1,-1.427432810e0,2.016488168e0
7.840348333e0,1.043001770e0,-8.116435263e-1,-1.390281941e0,1.918202747e0
7.850319333e0,1.145326874e0,-6.617571697e-1,-9.873146421e-1,1.650601831e0
7.860290333e0,1.303975868e0,-5.569165930e-1,-7.220592123e-1,1.591187815e0
7.870261333e0,1.512414196e0,-5.129847077e-1,-5.104209960e-1,1.676627449e0
7.880232333e0,1.680926858e0,-4.391162476e-1,-3.077565014e-1,1.764384381e0
7.890203333e0,1.825050491e0,-2.867600271e-1,-7.946190655e-2,1.849149751e0
7.900174333e0,1.896984692e0,-1.527152395e-1,9.885302782e-2,1.905687484e0
7.910145333e0,1.907987106e0,3.145509660e-3,2.306288034e-1,1.921877815e0
7.920116333e0,1.948484044e0,1.138002652e-1,3.749234676e-1,1.987487906e0
7.930087333e0,1.913366252e0,1.028297192e-1,6.100902951e-1,2.010908882e0
7.940059333e0,1.849426364e0,1.753957120e-1,1.057715119e0,2.137733099e0
7.950030333e0,1.753588453e0,2.948397097e-1,1.524481972e0,2.342231457e0
7.960001333e0,1.601143647e0,3.475845185e-1,1.824748775e0,2.452383344e0
7.969972333e0,1.506128731e0,4.092416534e-1,2.059966473e0,2.584446625e0
7.979943333e0,1.468839283e0,4.415782177e-1,2.324451240e0,2.784879482e0
7.989914333e0,1.442405775e0,4.435525301e-1,2.596290050e0,3.002997717e0
7.999885333e0,1.393731798e0,4.609690467e-1,2.654743495e0,3.033585966e0
8.009856333e0,1.266330324e0,4.463641638e-1,2.644547120e0,2.965883162e0
8.019827333e0,9.860031116e-1,4.230403514e-1,2.714575714e0,2.918918735e0
8.029798333e0,5.958026236e-1,4.562789950e-1,2.791264286e0,2.890385373e0
8.039769333e0,1.725834936e-1,4.621481377e-1,2.782206949e0,2.825604620e0
8.049740333e0,-2.319222075e-1,3.713530116e-1,2.667420259e0,2.703113354e0
8.059711333e0,-5.955090934e-1,2.674655311e-1,2.567156882e0,2.648860764e0
8.069682333e0,-8.799591780e-1,2.015880221e-1,2.486827834e0,2.645614968e0
8.079653333e0,-1.121243947e0,1.806022190e-1,2.391266788e0,2.647255561e0
8.089624333e0,-1.283671412e0,1.980981115e-1,2.163641700e0,2.523569012e0
8.099595333e0,-1.369873989e0,2.003769176e-1,1.830050445e0,2.294730983e0
8.109566333e0,-1.370256397e0,2.146416387e-1,1.438974629e0,1.998579898e0
8.119537333e0,-1.252627375e0,1.640404192e-1,9.434499997e-1,1.576731588e0
8.129508333e0,-1.133722490e0,1.215101114e-1,4.914239770e-1,1.241607392e0
8.139479333e0,-1.145273080e0,1.609865646e-1,1.806508970e-1,1.170556213e0
8.149450333e0,-1.179997355e0,1.889214912e-1,-5.785235167e-2,1.196424666e0
8.159421333e0,-1.127420361e0,1.621900678e-1,-3.716197908e-1,1.198116671e0
8.169392333e0,-1.069446972e0,1.200108853e-1,-6.817607868e-1,1.273937679e0
8.179363333e0,-1.141863568e0,1.356052633e-1,-8.592202735e-1,1.435444417e0
8.189334333e0,-1.281861699e0,2.200745791e-1,-1.005950303e0,1.644243974e0
8.199305333e0,-1.334724036e0,3.422408943e-1,-1.143250528e0,1.790429796e0
8.209276333e0,-1.287780250e0,4.447149566e-1,-1.234465338e0,1.838492327e0
8.219247333e0,-1.182552588e0,5.069758165e-1,-1.268159918e0,1.806567098e0
8.229218333e0,-1.038269033e0,5.636411834e-1,-1.305731202e0,1.760860001e0
8.239189333e0,-8.407810789e-1,6.433295234e-1,-1.399070306e0,1.754475255e0
8.249160333e0,-5.902033299e-1,7.250541562e-1,-1.529302416e0,1.792431137e0
8.259131333e0,-3.843380696e-1,8.128217402e-1,-1.678608729e0,1.904237958e0
8.269102333e0,-2.477319092e-1,8.622649187e-1,-1.780569552e0,1.993815392e0
8.279074333e0,-1.761204743e-1,9.357500938e-1,-1.728950917e0,1.973807978e0
8.289045333e0,-1.059538865e-1,1.036367811e0,-1.543029340e0,1.861779796e0
8.299016333e0,-1.691710585e-1,1.171943985e0,-1.313682831e0,1.768568384e0
8.308987333e0,-3.334649545e-1,1.345036478e0,-1.040664638e0,1.733004585e0
8.318958333e0,-4.226583821e-1,1.474169312e0,-7.279228002e-1,1.697553202e0
8.328929333e0,-4.068732387e-1,1.518558450e0,-4.736975580e-1,1.641936349e0
8.338900333e0,-3.859787983e-1,1.526251632e0,-3.067016637e-1,1.603898247e0
8.348871333e0,-3.784469998e-1,1.543161195e0,-5.609935641e-2,1.589879160e0
8.358842333e0,-4.093185443e-1,1.602743737e0,2.673960954e-1,1.675658029e0
8.368816042e0,-4.046144593e-1,1.690623880e0,5.201045698e-1,1.814505643e0
8.378787042e0,-3.304910606e-1,1.711958031e0,7.190198296e-1,1.886004814e0
8.388758042e0,-8.950683832e-2,1.618023097e0,8.857987922e-1,1.846794443e0
8.398729042e0,1.963389766e-1,1.468264794e0,1.017457623e0,1.797100586e0
8.408700042e0,3.400828332e-1,1.412563633e0,1.205151492e0,1.887692366e0
8.418671042e0,3.148374796e-1,1.464241033e0,1.402037768e0,2.051544380e0
8.428642042e0,2.436318415e-1,1.468008978e0,1.535264238e0,2.138093336e0
8.438613042e0,2.350528067e-1,1.377423329e0,1.586569462e0,2.114177738e0
8.448584042e0,1.805012083e-1,1.307889410e0,1.539704613e0,2.028261741e0
8.458555042e0,6.386153519e-2,1.309916055e0,1.427444504e0,1.938441688e0
8.468526042e0,-3.226435125e-2,1.287349895e0,1.338987826e0,1.857740332e0
8.478497042e0,-3.292391717e-2,1.205473089e0,1.409654351e0,1.855094267e0
8.488468042e0,2.748191357e-2,1.102267978e0,1.619435492e0,1.959163409e0
8.498439042e0,7.915668190e-2,9.791554374e-1,1.972431316e0,2.203519105e0
8.508410042e0,6.016609490e-2,8.530096534e-1,2.384530211e0,2.533225169e0
8.518381042e0,1.264436996e-1,7.184117192e-1,2.761711289e0,2.856423052e0
8.528352042e0,2.518740767e-1,6.309341571e-1,3.033778725e0,3.108911676e0
8.538323042e0,2.930133319e-1,6.103121969e-1,3.070988066e0,3.144726617e0
8.548294042e0,3.684003139e-1,4.233699882e-1,3.197086780e0,3.245970551e0
8.558265042e0,4.409221601e-1,8.711825073e-2,3.570800459e0,3.598974556e0
8.568236042e0,3.647990137e-1,-2.664403680e-1,3.788884061e0,3.815718965e0
8.578207042e0,2.011219990e-1,-5.616250634e-1,3.594323223e0,3.643491759e0
8.588178042e0,4.639648676e-2,-7.743283501e-1,3.083945496e0,3.180008939e0
8.598150042e0,-1.679881668e-1,-9.165124619e-1,2.305636069e0,2.486799711e0
8.608121042e0,-5.279196659e-1,-9.678893146e-1,1.405442601e0,1.786274840e0
8.618092042e0,-8.669736814e-1,-9.730831039e-1,5.772552556e-1,1.425397391e0
8.628063042e0,-1.154844680e0,-1.024260859e0,-1.609574747e-1,1.551993508e0
8.638034042e0,-1.397802337e0,-1.069686123e0,-7.611384934e-1,1.917657838e0
8.648005042e0,-1.535879657e0,-1.064103786e0,-1.234744835e0,2.239606661e0
8.657976042e0,-1.613503491e0,-1.048573874e0,-1.530279486e0,2.458588211e0
8.667947042e0,-1.605007195e0,-1.039751010e0,-1.757946090e0,2.597595949e0
8.677918042e0,-1.586597821e0,-1.034616278e0,-1.856326078e0,2.652106709e0
8.687889042e0,-1.611953687e0,-1.031352362e0,-1.805712579e0,2.631098687e0
8.697860042e0,-1.625237684e0,-1.078408122e0,-1.565472123e0,2.501012710e0
8.707831042e0,-1.551459271e0,-1.208795769e0,-1.364506245e0,2.393760717e0
8.717802042e0,-1.452679918e0,-1.393071647e0,-1.328209069e0,2.411444979e0
8.727773042e0,-1.343898318e0,-1.590831790e0,-1.396747792e0,2.507531229e0
8.737744042e0,-1.315863842e0,-1.752713709e0,-1.519917051e0,2.667142823e0
8.747715042e0,-1.392015640e0,-1.809891000e0,-1.650370186e0,2.817292091e0
8.757686042e0,-1.515263836e0,-1.832930199e0,-1.801047086e0,2.983190945e0
8.767657042e0,-1.655164318e0,-1.848159564e0,-1.905093611e0,3.128041618e0
8.777628042e0,-1.763782196e0,-1.835896784e0,-1.938932617e0,3.200141298e0
8.787599042e0,-1.872956729e0,-1.794709581e0,-1.967985678e0,3.256058510e0
8.797570042e0,-1.924381236e0,-1.738947025e0,-1.926080437e0,3.230629312e0
8.807541042e0,-1.933685326e0,-1.687410543e0,-1.895558556e0,3.190554109e0
8.817512042e0,-1.991295603e0,-1.623510416e0,-1.825337589e0,3.151650610e0
8.827483042e0,-1.958820167e0,-1.496885453e0,-1.758105719e0,3.027966021e0
8.837454042e0,-1.859687642e0,-1.328451728e0,-1.745083970e0,2.875506944e0
8.847425042e0,-1.804629675e0,-1.157116030e0,-1.685812499e0,2.727190781e0
8.857396042e0,-1.769868563e0,-9.354372677e-1,-1.457067084e0,2.475989115e0
8.867367042e0,-1.624268800e0,-6.356256706e-1,-1.149766080e0,2.089074237e0
8.877338042e0,-1.440585537e0,-3.248482051e-1,-8.212326676e-1,1.689744401e0
8.887309042e0,-1.351683885e0,-5.734773695e-2,-5.124628437e-1,1.446705310e0
8.897280042e0,-1.185784929e0,2.978673980e-1,-2.202219290e-1,1.242299715e0
8.907252042e0,-8.976546067e-1,6.869893670e-1,3.523298264e-2,1.130919779e0
8.917223042e0,-5.072588217e-1,9.737979260e-1,2.766405433e-1,1.132309102e0
8.927194042e0,2.099384308e-2,1.210711609e0,6.066626573e-1,1.354364398e0
8.937165042e0,6.015492672e-1,1.416267552e0,1.087331266e0,1.884134969e0
8.947136042e0,1.166042975e0,1.592360544e0,1.659469038e0,2.578586010e0
8.957107042e0,1.631900001e0,1.658492553e0,2.184745470e0,3.191677918e0
8.967078042e0,1.892061921e0,1.628449559e0,2.696135350e0,3.674356012e0
8.977049042e0,1.983156279e0,1.679928446e0,3.138480138e0,4.074938770e0
8.987020042e0,1.933805779e0,1.744968195e0,3.364298437e0,4.254764713e0
8.996991042e0,1.726381651e0,1.774411265e0,3.376998004e0,4.187247838e0
9.006962042e0,1.441528693e0,1.790492862e0,3.187042433e0,3.929517671e0
9.016933042e0,1.136766551e0,1.816300133e0,2.777836155e0,3.508212945e0
9.026904042e0,8.197942525e-1,1.891856684e0,2.477911415e0,3.223542974e0
9.036875042e0,6.043214321e-1,1.970198556e0,2.317668470e0,3.101366454e0
9.046846042e0,4.960695899e-1,1.915337348e0,2.311550528e0,3.042674488e0
9.056817042e0,4.987365049e-1,1.679458622e0,2.402853631e0,2.973722404e0
9.066788042e0,4.584222919e-1,1.465198222e0,2.700600868e0,3.106477407e0
9.076759042e0,3.602153814e-1,1.334825193e0,3.019148991e0,3.320658677e0
9.086730042e0,2.569933140e-1,1.016464182e0,3.155383269e0,3.325009559e0
9.096701042e0,1.282674462e-1,5.267013985e-1,3.037810380e0,3.085799541e0
9.106672042e0,-1.465569520e-1,1.388026670e-1,2.777736753e0,2.785061326e0
9.116643042e0,-5.127481878e-1,2.736964703e-2,2.472146645e0,2.524909668e0
9.126614042e0,-8.055188602e-1,-1.012854695e-2,2.124456584e0,2.272064919e0
9.136585042e0,-9.215393132e-1,-2.044034564e-1,1.795734891e0,2.028713700e0
9.146556042e0,-9.026522219e-1,-5.020553845e-1,1.650049174e0,1.946664563e0
9.156527042e0,-7.420923579e-1,-8.383088762e-1,1.619564715e0,1.968870922e0
9.166498042e0,-5.644551158e-1,-1.156412026e0,1.667574449e0,2.106348236e0
9.176470042e0,-4.536702597e-1,-1.404630131e0,1.658617099e0,2.220318263e0
9.186441042e0,-3.503850424e-1,-1.497799665e0,1.541827152e0,2.177935831e0
9.196412042e0,-2.679626906e-1,-1.551787300e0,1.316611701e0,2.052635915e0
9.206383042e0,-2.118434536e-1,-1.689113252e0,9.826403779e-1,1.965594907e0
9.216354042e0,-2.351937246e-1,-1.874847426e0,6.458875340e-1,1.996882487e0
9.226325042e0,-3.603826118e-1,-2.015219486e0,2.947452772e-1,2.068298813e0
9.236296042e0,-5.780680186e-1,-2.093885586e0,-2.900862157e-2,2.172409027e0
9.246267042e0,-8.469528151e-1,-2.137974177e0,-3.739575076e-1,2.329829794e0
9.256238042e0,-1.159623317e0,-2.160129569e0,-6.111258370e-1,2.526729266e0
9.266209042e0,-1.408495433e0,-2.137788528e0,-8.220261347e-1,2.688815007e0
9.276180042e0,-1.568838365e0,-2.101193144e0,-9.630586374e-1,2.793518996e0
9.286151042e0,-1.710310578e0,-2.035694681e0,-1.052806966e0,2.859653408e0
9.296122042e0,-1.763968722e0,-1.913924953e0,-1.115880881e0,2.831940063e0
9.306093042e0,-1.721989222e0,-1.790177697e0,-1.149255618e0,2.736927391e0
9.316064042e0,-1.623605726e0,-1.656941872e0,-1.238228606e0,2.629593505e0
9.326035042e0,-1.499421390e0,-1.511090679e0,-1.316267300e0,2.502842214e0
9.336006042e0,-1.323590353e0,-1.340988451e0,-1.406230221e0,2.351090148e0
9.345977042e0,-1.143396124e0,-1.182309636e0,-1.530226861e0,2.246509519e0
9.355948042e0,-1.029688829e0,-1.070653545e0,-1.618613373e0,2.196922245e0
9.365915417e0,-9.376823062e-1,-9.234729874e-1,-1.610206831e0,2.079619317e0
9.375886417e0,-8.264489686e-1,-7.433155954e-1,-1.596108025e0,1.945018457e0
9.385857417e0,-7.447002161e-1,-6.527846172e-1,-1.572380024e0,1.858247859e0
9.395828417e0,-6.972687721e-1,-6.224185646e-1,-1.519249299e0,1.783734016e0
9.405799417e0,-6.479381526e-1,-5.523195121e-1,-1.505522960e0,1.729589569e0
9.415770417e0,-5.710917056e-1,-4.565479669e-1,-1.484246696e0,1.654560376e0
9.425742417e0,-4.939692700e-1,-3.606492448e-1,-1.512417412e0,1.631404286e0
9.435713417e0,-4.007529581e-1,-3.002787897e-1,-1.520510543e0,1.600850585e0
9.445684417e0,-2.709307373e-1,-2.152351311e-1,-1.530140322e0,1.568776285e0
9.455655417e0,-2.071750367e-1,-1.120206651e-1,-1.509068711e0,1.527337062e0
9.465626417e0,-2.020645702e-1,5.049538493e-2,-1.347085050e0,1.363091342e0
9.475597417e0,-1.687395340e-1,2.821734712e-1,-1.091441274e0,1.139885500e0
9.485568417e0,-1.127284706e-1,4.473590675e-1,-8.804404038e-1,9.939885050e-1
9.495539417e0,-5.074623048e-2,5.670325685e-1,-7.438558781e-1,9.367084290e-1
9.505510417e0,-1.151726067e-2,6.895709127e-1,-5.900355148e-1,9.076247020e-1
9.515481417e0,-3.274499238e-2,8.202754784e-1,-5.059057760e-1,9.642949492e-1
9.525452417e0,-1.200316429e-1,9.450106215e-1,-4.136817366e-1,1.038549589e0
9.535423417e0,-2.233800101e-1,1.105019678e0,-2.816317266e-1,1.162017017e0
9.545394417e0,-3.094451773e-1,1.249416668e0,-1.135219377e-1,1.292163132e0
9.555365417e0,-3.297005171e-1,1.347466289e0,6.916671395e-2,1.388939115e0
9.565336417e0,-2.859633440e-1,1.411498855e0,2.941588014e-1,1.469909335e0
9.575307417e0,-1.987427670e-1,1.441582487e0,5.097509050e-1,1.541915932e0
9.585278417e0,-8.884376407e-2,1.461967050e0,7.815651566e-1,1.660146067e0
9.595249417e0,-3.963184297e-2,1.487978097e0,1.075311729e0,1.836285603e0
9.605220417e0,-6.617293954e-3,1.577936340e0,1.250424728e0,2.013327813e0
9.615191417e0,7.444090247e-3,1.824634462e0,1.395593551e0,2.297178202e0
9.625162417e0,-6.769906282e-3,2.046478701e0,1.513530722e0,2.545367586e0
9.635133417e0,-6.535432935e-2,2.135653709e0,1.584584917e0,2.660112275e0
9.645104417e0,-1.245690823e-1,2.159675826e0,1.821588355e0,2.828056092e0
9.655075417e0,-1.320716447e-1,2.226167438e0,2.321228839e0,3.218907844e0
9.665047417e0,-1.162028861e-1,2.328332621e0,2.857091655e0,3.687493543e0
9.675018417e0,-3.704795837e-2,2.253744369e0,3.372979798e0,4.056812659e0
9.684989417e0,7.404212236e-2,1.994538761e0,3.820638535e0,4.310562135e0
9.694960417e0,2.280899423e-1,1.663779898e0,4.145025687e0,4.472295442e0
9.704931417e0,3.309500670e-1,1.263574532e0,4.349616255e0,4.541509673e0
9.714902417e0,2.976735628e-1,8.186704177e-1,4.262251251e0,4.350358207e0
9.724873417e0,1.321131599e-1,3.878484455e-1,3.889325193e0,3.910847831e0
9.734844417e0,-2.696735859e-1,1.434760541e-2,3.262316564e0,3.273475074e0
9.744815417e0,-9.204219103e-1,-1.550137800e-1,2.519581012e0,2.686911655e0
9.754786417e0,-1.654345708e0,-9.997540087e-2,1.813581762e0,2.456813711e0
9.764757417e0,-2.303426991e0,1.278046390e-1,1.244830697e0,2.621395314e0
9.774728417e0,-2.759732591e0,4.045095018e-1,8.339491922e-1,2.911223654e0
9.784699417e0,-3.064225177e0,4.920081139e-1,8.974598944e-1,3.230631854e0
9.794670417e0,-3.188389047e0,5.503226879e-1,1.306538118e0,3.489372670e0
9.804641417e0,-3.128203071e0,6.044436389e-1,1.816550978e0,3.667541960e0
9.814612417e0,-2.891541696e0,5.095041525e-1,2.271097736e0,3.711939222e0
9.824583417e0,-2.560961757e0,3.008664349e-1,2.591376050e0,3.655718201e0
9.834554417e0,-2.262198858e0,6.450823724e-2,2.767298303e0,3.574862919e0
9.844525417e0,-2.021418704e0,-1.592611974e-1,2.775021306e0,3.436894085e0
9.854496417e0,-1.872877207e0,-3.439224073e-1,2.558049844e0,3.188976428e0
9.864467417e0,-1.855864148e0,-4.901507458e-1,2.168932260e0,2.896333309e0
9.874438417e0,-1.879250087e0,-5.710513598e-1,1.816875499e0,2.675577905e0
9.884409417e0,-1.993324002e0,-5.619150853e-1,1.483221095e0,2.547358231e0
9.894380417e0,-2.074013824e0,-5.702000052e-1,1.123551258e0,2.426732127e0
9.904352417e0,-2.161317431e0,-6.448756734e-1,8.029653811e-1,2.394140989e0
9.914323417e0,-2.284179127e0,-6.960975748e-1,5.071027011e-1,2.441143024e0
9.924294417e0,-2.390177452e0,-6.606231022e-1,3.183358687e-1,2.500141768e0
9.934265417e0,-2.469330041e0,-5.908766368e-1,1.649370897e-1,2.544391930e0
9.944236417e0,-2.435768777e0,-5.275767267e-1,5.236707866e-2,2.492799440e0
9.954207417e0,-2.288011392e0,-4.817532670e-1,-2.147799253e-2,2.338277923e0
9.964178417e0,-2.088167594e0,-4.369352362e-1,-1.134763294e-1,2.136406604e0
9.974149417e0,-1.911409189e0,-3.783028659e-1,-2.595678431e-1,1.965699267e0
9.984120417e0,-1.787434768e0,-3.145407334e-1,-3.761180538e-1,1.853462628e0
9.994091417e0,-1.675020878e0,-2.421261835e-1,-4.565704787e-1,1.752933721e0
1.000406242e1,-1.506988272e0,-2.440513793e-1,-5.007830304e-1,1.606660627e0
1.001403342e1,-1.363419247e0,-2.853704363e-1,-4.996872622e-1,1.479876917e0
1.002400442e1,-1.305255239e0,-2.745852470e-1,-3.597417569e-1,1.381485588e0
1.003397542e1,-1.270361395e0,-1.921997327e-1,-1.525234509e-1,1.293840104e0
1.004394642e1,-1.088639873e0,-1.503240207e-1,2.312398374e-2,1.099212810e0
1.005391742e1,-7.734919059e-1,-1.601628381e-1,1.585870135e-1,8.056622767e-1
1.006388842e1,-4.352655637e-1,-1.262671137e-1,2.900973254e-1,5.381040357e-1
1.007385942e1,-1.226968038e-1,-4.078842223e-2,4.663938010e-1,4.839848951e-1
1.008383042e1,2.149337071e-1,-4.170234203e-3,6.438445169e-1,6.787854235e-1
1.009380142e1,5.252167904e-1,-4.704055756e-2,7.733965963e-1,9.360597129e-1
1.010377242e1,6.718216896e-1,-8.711649656e-2,8.769548786e-1,1.108144181e0
1.011374342e1,7.498235464e-1,-5.993688405e-2,9.055395770e-1,1.177212685e0
1.012371542e1,8.886510640e-1,-5.326228738e-2,8.066836256e-1,1.201364248e0
1.013368642e1,1.008313748e0,-8.448437244e-2,6.107229638e-1,1.181870027e0
1.014365742e1,1.041444656e0,-1.178877613e-1,4.413484222e-1,1.137230375e0
1.015362842e1,9.918912578e-1,-8.499395728e-2,3.957407248e-1,1.071299660e0
1.016359942e1,9.600660324e-1,-4.276507348e-2,4.348357934e-1,1.054816479e0
1.017357042e1,9.689725113e-1,-6.978213340e-2,4.629994923e-1,1.076171828e0
1.018354142e1,9.709161258e-1,-1.047116455e-1,4.796038306e-1,1.087962539e0
1.019351242e1,9.577271461e-1,-5.346898645e-2,5.343138885e-1,1.097994331e0
1.020348342e1,9.860452116e-1,8.463376880e-2,6.243458068e-1,1.170152007e0
1.021345442e1,1.058998582e0,1.734219843e-1,6.833126378e-1,1.272190765e0
1.022342542e1,1.238194692e0,2.042432427e-1,6.736156154e-1,1.424289084e0
1.023339642e1,1.445720562e0,2.511361581e-1,6.385194576e-1,1.600276354e0
1.024336742e1,1.555821294e0,3.758841652e-1,6.369991815e-1,1.722683012e0
1.025333842e1,1.628264787e0,4.741869700e-1,7.202372199e-1,1.842509472e0
1.026330942e1,1.653496692e0,4.544046700e-1,8.228038144e-1,1.901983447e0
1.027328042e1,1.638580445e0,3.541945034e-1,9.554788917e-1,1.929595692e0
1.028325142e1,1.594629849e0,2.349285534e-1,1.214472538e0,2.018162363e0
1.029322242e1,1.522804406e0,1.313769954e-1,1.424260111e0,2.089188846e0
1.030319342e1,1.454878471e0,-3.525227845e-2,1.474161419e0,2.071488831e0
1.031316442e1,1.411842379e0,-3.009880570e-1,1.411595626e0,2.019033166e0
1.032313642e1,1.291309630e0,-5.677038288e-1,1.281598574e0,1.905849706e0
1.033310742e1,1.053383501e0,-7.328119496e-1,1.143583819e0,1.718840919e0
1.034307842e1,7.967749339e-1,-8.599377269e-1,9.986354363e-1,1.540005170e0
1.035304942e1,5.660753793e-1,-1.005709105e0,7.695327562e-1,1.387109514e0
1.036302042e1,3.425971359e-1,-1.193885954e0,4.693764657e-1,1.327799207e0
1.037299192e1,7.380589485e-2,-1.373595157e0,2.076241028e-1,1.391157336e0
1.038296292e1,-2.327466649e-1,-1.499719306e0,-2.897470772e-2,1.517948794e0
1.039293392e1,-5.496382713e-1,-1.535620333e0,-2.572891831e-1,1.651190407e0
1.040290492e1,-7.982478476e-1,-1.520208827e0,-4.966221517e-1,1.787419387e0
1.041287592e1,-9.387464994e-1,-1.469627780e0,-6.891510826e-1,1.875094669e0
1.042284692e1,-1.023570887e0,-1.383898243e0,-8.005709463e-1,1.898363914e0
1.043281792e1,-1.014549218e0,-1.310133571e0,-9.060360056e-1,1.888560651e0
1.044278892e1,-8.880727744e-1,-1.249301186e0,-9.940196443e-1,1.826883072e0
1.045275992e1,-7.438652337e-1,-1.177052697e0,-1.075649698e0,1.759491634e0
1.046273092e1,-6.459477603e-1,-1.046526471e0,-1.195730458e0,1.715295162e0
1.047270192e1,-5.581307673e-1,-8.716681185e-1,-1.313458298e0,1.672270302e0
1.048267292e1,-4.818526697e-1,-7.023327532e-1,-1.448160020e0,1.680065694e0
1.049264392e1,-4.659546751e-1,-5.424517509e-1,-1.560228340e0,1.716298382e0
1.050261492e1,-4.344416910e-1,-3.673688650e-1,-1.641102349e0,1.736927283e0
1.051258592e1,-3.596914709e-1,-2.178476670e-1,-1.658960330e0,1.711427749e0
1.052255692e1,-3.087248003e-1,-1.171261615e-1,-1.634288589e0,1.667311828e0
1.053252892e1,-2.641000199e-1,-2.643233836e-3,-1.578103863e0,1.600052377e0
1.054249992e1,-1.665602767e-1,7.890905231e-2,-1.523814805e0,1.534920364e0
1.055247092e1,-6.868899643e-2,1.189192101e-1,-1.496760322e0,1.503047378e0
1.056244192e1,-3.017221749e-2,1.699855757e-1,-1.451193556e0,1.461426767e0
1.057241292e1,-8.947409391e-3,2.938006595e-1,-1.354610417e0,1.386134288e0
1.058238392e1,4.589771926e-2,4.125836295e-1,-1.228538015e0,1.296779668e0
1.059235492e1,4.655670047e-2,4.796827680e-1,-1.147704352e0,1.244784465e0
1.060232592e1,4.236775517e-2,5.446476728e-1,-1.030728464e0,1.166549305e0
1.061229692e1,4.231629968e-2,5.655520535e-1,-9.623090243e-1,1.116995279e0
1.062226792e1,-6.428370416e-2,5.931675759e-1,-8.926955831e-1,1.073725091e0
1.063223892e1,-1.316635090e-1,7.237902805e-1,-7.286560410e-1,1.035445448e0
1.064220992e1,-1.109895086e-1,8.181184405e-1,-5.924287802e-1,1.016173368e0
1.065218092e1,-1.015111721e-1,8.054042548e-1,-5.441997761e-1,9.773095354e-1
1.066215192e1,-1.636173731e-1,8.061667317e-1,-5.488845652e-1,9.889133987e-1
1.067212292e1,-2.854406029e-1,8.800673515e-1,-5.884883416e-1,1.096500529e0
1.068209392e1,-4.218134594e-1,9.813773793e-1,-6.793704450e-1,1.265927469e0
1.069206492e1,-4.995726568e-1,1.053117453e0,-8.115648812e-1,1.420305166e0
1.070203592e1,-4.231080329e-1,1.069276818e0,-9.454082322e-1,1.488680640e0
1.071200692e1,-2.777813351e-1,1.046540505e0,-9.907726854e-1,1.467664816e0
1.072197792e1,-1.617322308e-1,9.856090093e-1,-9.027165413e-1,1.346283621e0
1.073194992e1,-8.782868743e-2,9.515390378e-1,-6.467423970e-1,1.153870074e0
1.074192092e1,1.207999671e-1,9.501076394e-1,-3.660959262e-1,1.025340619e0
1.075189192e1,3.303378636e-1,8.066134590e-1,-2.313684762e-1,9.018202416e-1
1.076186292e1,4.056710511e-1,6.387258643e-1,-1.934603924e-1,7.810036203e-1
1.077183392e1,3.534103918e-1,5.583120310e-1,-7.048526108e-2,6.645144100e-1
1.078180492e1,2.232420158e-1,5.607234228e-1,1.073946404e-1,6.130100842e-1
1.079177592e1,2.316666842e-2,5.997734678e-1,3.443559784e-1,6.919869558e-1
1.080174692e1,-9.201470912e-2,6.870139253e-1,7.431758469e-1,1.016250550e0
1.081171792e1,-7.577289820e-2,8.123571789e-1,1.187322747e0,1.440625219e0
1.082168892e1,-2.721001804e-2,9.268403989e-1,1.624931290e0,1.870875519e0
1.083165992e1,5.880720198e-2,1.016765313e0,2.081884761e0,2.317652723e0
1.084163092e1,2.082801604e-1,1.073387118e0,2.619405847e0,2.838455130e0
1.085160192e1,4.750506037e-1,1.043218409e0,3.149563535e0,3.351675430e0
1.086157292e1,8.301081562e-1,9.170542064e-1,3.543223236e0,3.752932036e0
1.087154392e1,1.227824070e0,6.968314004e-1,3.869129494e0,4.118651356e0
1.088151492e1,1.532745257e0,3.906551090e-1,3.967858561e0,4.271512730e0
1.089148592e1,1.638551209e0,1.030913821e-1,3.770747167e0,4.112664841e0
1.090145692e1,1.540657709e0,-1.041482663e-1,3.368120177e0,3.705226925e0
1.091142792e1,1.255173252e0,-2.712903410e-1,2.766377952e0,3.049902509e0
1.092139992e1,8.542004389e-1,-4.101009017e-1,2.059382336e0,2.266913484e0
1.093137092e1,3.397331697e-1,-4.554834813e-1,1.396677625e0,1.507843565e0
1.094134192e1,-1.521468902e-1,-3.787428689e-1,8.641740346e-1,9.557152290e-1
1.095131292e1,-5.337572336e-1,-3.028167737e-1,5.041270530e-1,7.941907003e-1
1.096128392e1,-7.845209241e-1,-2.801023874e-1,3.599586886e-1,9.074693853e-1
1.097125492e1,-9.101027441e-1,-2.722314504e-1,3.447342932e-1,1.010563556e0
1.098122592e1,-8.953683454e-1,-2.966584861e-1,3.190895748e-1,9.957453932e-1
1.099119692e1,-7.978999382e-1,-3.976723525e-1,2.659249359e-1,9.303245041e-1
1.100116792e1,-6.284821272e-1,-5.421877491e-1,2.201552707e-1,8.587349316e-1
1.101113892e1,-4.581188214e-1,-7.132977444e-1,1.474761343e-1,8.604741349e-1
1.102110992e1,-4.077859890e-1,-8.883437929e-1,-3.513767302e-2,9.780995671e-1
1.103108092e1,-4.758943570e-1,-1.055050542e0,-3.836358190e-1,1.219337331e0
1.104105192e1,-6.614259249e-1,-1.207485116e0,-8.275786507e-1,1.606359543e0
1.105102292e1,-9.484943926e-1,-1.298237411e0,-1.220299289e0,2.018462866e0
1.106099392e1,-1.208801908e0,-1.325507655e0,-1.479105824e0,2.325064867e0
1.107096492e1,-1.416770412e0,-1.378058921e0,-1.675412641e0,2.591002182e0
1.108093592e1,-1.561850358e0,-1.442828529e0,-1.785304627e0,2.776408348e0
1.109090692e1,-1.654638069e0,-1.478401819e0,-1.771460760e0,2.839290810e0
1.110087792e1,-1.741911855e0,-1.448345962e0,-1.698242510e0,2.831252472e0
1.111084992e1,-1.821150398e0,-1.325655590e0,-1.646212231e0,2.789976026e0
1.112082092e1,-1.870879213e0,-1.211403919e0,-1.602944589e0,2.745381548e0
1.113079192e1,-1.833689167e0,-1.136600490e0,-1.610285769e0,2.692080402e0
1.114076292e1,-1.793937457e0,-1.079525233e0,-1.615517857e0,2.644519668e0
1.115073392e1,-1.735044301e0,-1.007767618e0,-1.578897915e0,2.553212275e0
1.116070492e1,-1.613854909e0,-9.127047551e-1,-1.499472261e0,2.384528192e0
1.117067592e1,-1.429820813e0,-8.064245939e-1,-1.363804579e0,2.134167545e0
1.118064692e1,-1.269113599e0,-6.999830496e-1,-1.266981120e0,1.925062792e0
1.119061792e1,-1.132691041e0,-5.585038197e-1,-1.172584255e0,1.723330887e0
1.120058892e1,-9.604846931e-1,-3.804648739e-1,-1.060485529e0,1.480511372e0
1.121055992e1,-7.541200805e-1,-2.193483549e-1,-9.319572973e-1,1.218751493e0
1.122053092e1,-5.524396724e-1,-8.194697320e-2,-8.136365497e-1,9.868684477e-1
1.123050192e1,-3.594464725e-1,8.381574333e-2,-6.671673059e-1,7.624559394e-1
1.124047292e1,-4.961128592e-2,2.744297111e-1,-4.596543002e-1,5.376383745e-1
1.125044392e1,4.247154325e-1,4.383850533e-1,-2.973449492e-1,6.789541018e-1
1.126041492e1,9.381372195e-1,4.908410096e-1,-1.553675365e-1,1.070124017e0
1.127038592e1,1.416581547e0,5.308634466e-1,-4.435113072e-3,1.512791773e0
1.128035692e1,1.843648730e0,5.920346779e-1,1.688102853e-1,1.943718758e0
1.129032892e1,2.230721542e0,5.860307568e-1,2.890167600e-1,2.324452911e0
1.130029992e1,2.531605811e0,4.955877793e-1,3.548254180e-1,2.603946295e0
1.131027092e1,2.731567138e0,3.720127237e-1,4.184893173e-1,2.788366153e0
1.132024192e1,2.810627925e0,2.430436116e-1,4.647676903e-1,2.859144721e0
1.133021292e1,2.753043376e0,1.404144520e-1,4.675012636e-1,2.795983097e0
1.134018392e1,2.647529200e0,5.267522693e-2,4.299978071e-1,2.682738090e0
1.135015492e1,2.526903480e0,-8.766847372e-2,4.221104980e-1,2.563416516e0
1.136012592e1,2.340587801e0,-2.267140925e-1,4.816725755e-1,2.400366431e0
1.137010083e1,2.125978614e0,-2.844936463e-1,5.770927030e-1,2.221206359e0
1.138007183e1,1.981531337e0,-3.225134119e-1,6.373967922e-1,2.106360846e0
1.139004283e1,1.816414738e0,-4.089855453e-1,6.127805990e-1,1.960135643e0
1.140001383e1,1.645767258e0,-4.675962809e-1,6.610780156e-1,1.834181096e0
1.140998483e1,1.601096869e0,-4.612000117e-1,7.997523361e-1,1.848193830e0
1.141995583e1,1.654076151e0,-5.183299398e-1,9.013249040e-1,1.953719638e0
1.142992683e1,1.748696380e0,-6.378549215e-1,1.010597085e0,2.118042586e0
1.143989783e1,1.818708601e0,-7.171431658e-1,1.210740845e0,2.299540974e0
1.144986883e1,1.781347232e0,-8.178804588e-1,1.353213517e0,2.381871791e0
1.145984083e1,1.637345513e0,-9.535715300e-1,1.443458859e0,2.381968192e0
1.146981183e1,1.382977599e0,-1.054206789e0,1.455519910e0,2.267711887e0
1.147978283e1,1.026156526e0,-1.126076671e0,1.296720058e0,2.000632099e0
1.148975383e1,6.540379679e-1,-1.184103270e0,1.084783634e0,1.733961288e0
1.149972483e1,3.028378236e-1,-1.244907880e0,8.453413224e-1,1.534961996e0
1.150969583e1,-2.756728292e-2,-1.315984587e0,6.121455914e-1,1.451653407e0
1.151966683e1,-2.883057386e-1,-1.292229981e0,4.151967502e-1,1.387575895e0
1.152963783e1,-4.605518478e-1,-1.270437993e0,1.990935999e-1,1.365927876e0
1.153960883e1,-5.659672058e-1,-1.276309183e0,-4.852838159e-2,1.397010741e0
1.154957983e1,-6.659733045e-1,-1.295376661e0,-3.288006306e-1,1.493194893e0
1.155955083e1,-7.144291806e-1,-1.263500564e0,-6.102002227e-1,1.574543439e0
1.156952183e1,-6.999351025e-1,-1.185596941e0,-8.592062402e-1,1.622893902e0
1.157949283e1,-7.169200945e-1,-1.142178733e0,-1.180319536e0,1.792121896e0
1.158946383e1,-8.033723474e-1,-1.068392719e0,-1.463459845e0,1.982065803e0
1.159943483e1,-8.780828065e-1,-9.632033560e-1,-1.629136022e0,2.086354308e0
1.160940583e1,-9.269912571e-1,-8.581519872e-1,-1.750888501e0,2.159015555e0
1.161937683e1,-9.600613546e-1,-7.421239328e-1,-1.798792400e0,2.169820231e0
1.162934783e1,-9.625540227e-1,-6.143774736e-1,-1.776385869e0,2.111756777e0
1.163931983e1,-9.816562915e-1,-5.093497860e-1,-1.724065568e0,2.048289131e0
1.164929083e1,-9.982805103e-1,-4.151871023e-1,-1.634054700e0,1.959356800e0
1.165926183e1,-1.010778934e0,-3.080892080e-1,-1.560126014e0,1.884299921e0
1.166923283e1,-1.005399495e0,-2.106026745e-1,-1.532197958e0,1.844671302e0
1.167920383e1,-9.315906769e-1,-1.427586007e-1,-1.515216474e0,1.784410875e0
1.168917483e1,-8.288135827e-1,-4.662101984e-2,-1.493249069e0,1.708478346e0
1.169914583e1,-7.679101539e-1,1.108383581e-1,-1.517577580e0,1.704409826e0
1.170911683e1,-6.674351084e-1,2.798810703e-1,-1.549173594e0,1.709895278e0
1.171908783e1,-5.368796468e-1,4.086700881e-1,-1.586716812e0,1.724216122e0
1.172905883e1,-4.348118198e-1,5.226747134e-1,-1.587879823e0,1.727313668e0
1.173902983e1,-3.877569366e-1,6.515765825e-1,-1.542653364e0,1.718920267e0
1.174900083e1,-3.126237237e-1,7.628078735e-1,-1.418231632e0,1.640423849e0
1.175897183e1,-1.893603247e-1,8.450220644e-1,-1.189859269e0,1.471626550e0
1.176894283e1,-3.274440765e-3,9.010872146e-1,-9.322104818e-1,1.296528161e0
1.177891383e1,1.561101329e-1,9.725287879e-1,-7.093280697e-1,1.213807615e0
1.178888483e1,2.237635875e-1,1.040097458e0,-5.596218073e-1,1.202102089e0
1.179885583e1,2.777854282e-1,1.110857830e0,-4.155312109e-1,1.218128093e0
1.180882683e1,3.694031113e-1,1.167395143e0,-3.004451430e-1,1.260768560e0
1.181879883e1,4.804353046e-1,1.207065285e0,-2.748214746e-1,1.327912470e0
1.182876983e1,5.834141278e-1,1.262730194e0,-1.997139895e-1,1.405256298e0
1.183874083e1,7.468940914e-1,1.334764967e0,-7.639036417e-2,1.531431941e0
1.184871183e1,9.691654694e-1,1.346995003e0,2.828298211e-3,1.659423166e0
1.185868283e1,1.130127037e0,1.320012442e0,9.021493614e-2,1.740045603e0
1.186865383e1,1.236949235e0,1.311569062e0,2.616728407e-1,1.821738041e0
1.187862483e1,1.273702494e0,1.311116196e0,4.868321586e-1,1.891652524e0
1.188859583e1,1.211146642e0,1.297986565e0,7.781439507e-1,1.938337772e0
1.189856683e1,1.103425142e0,1.266765942e0,1.077250081e0,1.995673003e0
1.190853783e1,1.004798402e0,1.224289429e0,1.326021625e0,2.065632538e0
1.191850883e1,8.549278325e-1,1.169319754e0,1.527083398e0,2.104802601e0
1.192847983e1,6.825793970e-1,1.213142297e0,1.727582084e0,2.218596115e0
1.193845083e1,6.144523180e-1,1.311373181e0,1.846494570e0,2.346655805e0
1.194842183e1,6.441000402e-1,1.411730112e0,1.969972562e0,2.507715826e0
1.195839283e1,8.178909838e-1,1.518325731e0,2.213060027e0,2.805689464e0
1.196836383e1,1.143201411e0,1.514496682e0,2.516775518e0,3.151946807e0
1.197833583e1,1.461454250e0,1.356425393e0,2.787263036e0,3.427035688e0
1.198830683e1,1.693237293e0,1.156183692e0,3.008781293e0,3.640958408e0
1.199827783e1,1.899463912e0,9.943190217e-1,3.257810699e0,3.899995387e0
1.200824883e1,2.064376443e0,7.870121303e-1,3.315692872e0,3.984326469e0
1.201821983e1,2.114141511e0,5.215619883e-1,3.135379944e0,3.817358855e0
1.202819083e1,1.957299306e0,2.486250713e-1,2.779102077e0,3.408261046e0
1.203816183e1,1.660866523e0,-4.885991871e-2,2.223544085e0,2.775790553e0
1.204813283e1,1.280590514e0,-3.842468530e-1,1.641125738e0,2.116802163e0
1.205810383e1,8.063368857e-1,-5.874089456e-1,9.891980302e-1,1.404898995e0
1.206807483e1,2.755523765e-1,-6.063241035e-1,4.229255998e-1,7.889385867e-1
1.207804583e1,-1.948298103e-1,-5.814275363e-1,4.598308861e-2,6.149236370e-1
1.208801683e1,-5.303623402e-1,-5.308008814e-1,-2.041836011e-1,7.776404893e-1
1.209798783e1,-7.765576011e-1,-4.544008693e-1,-2.582405251e-1,9.360609097e-1
1.210795883e1,-8.884937739e-1,-3.353416184e-1,-1.816700667e-1,9.668915143e-1
1.211792983e1,-8.262466550e-1,-2.418297297e-1,5.762431026e-3,8.609287768e-1
1.212790083e1,-5.952851450e-1,-2.770194429e-1,1.714736921e-1,6.786069575e-1
1.213787183e1,-2.258896351e-1,-4.373237836e-1,2.387973636e-1,5.470853680e-1
1.214784383e1,1.623719162e-1,-6.362723726e-1,1.998268408e-1,6.863948846e-1
1.215781483e1,4.892599225e-1,-8.487175047e-1,4.115036488e-2,9.805049858e-1
1.216778583e1,6.552413249e-1,-1.088814997e0,-1.579952753e-1,1.280555269e0
1.217775683e1,6.919904906e-1,-1.315988973e0,-3.801140410e-1,1.534654521e0
1.218772783e1,6.202849156e-1,-1.484258975e0,-6.059908122e-1,1.719012201e0
1.219769883e1,4.896832609e-1,-1.687672498e0,-8.203538311e-1,1.939331989e0
1.220766983e1,3.118548149e-1,-1.900100089e0,-1.077450641e0,2.206475392e0
1.221764083e1,7.556181371e-2,-2.073768241e0,-1.362342190e0,2.482378003e0
1.222761183e1,-1.607118917e-1,-2.249790482e0,-1.610422593e0,2.771434007e0
1.223758283e1,-4.207334787e-1,-2.433770784e0,-1.881960272e0,3.105162049e0
1.224755383e1,-7.007285696e-1,-2.590967329e0,-2.111051842e0,3.414772629e0
1.225752483e1,-1.000563848e0,-2.682920642e0,-2.293265115e0,3.668549587e0
1.226749583e1,-1.236873806e0,-2.719490883e0,-2.464810728e0,3.873083965e0
1.227746683e1,-1.370252888e0,-2.726480060e0,-2.591485977e0,4.003384327e0
1.228743783e1,-1.388362885e0,-2.699953582e0,-2.608338822e0,4.002590693e0
1.229740883e1,-1.261938481e0,-2.667230224e0,-2.545605800e0,3.897013560e0
1.230738083e1,-1.172317622e0,-2.613980801e0,-2.549327552e0,3.834878773e0
1.231735183e1,-1.136464834e0,-2.530170320e0,-2.625889825e0,3.819504096e0
1.232732283e1,-1.069314240e0,-2.393678180e0,-2.672519031e0,3.743726238e0
1.233729383e1,-9.424992424e-1,-2.239478332e0,-2.662296343e0,3.604357064e0
1.234726483e1,-7.749782681e-1,-2.054171298e0,-2.614845604e0,3.414326957e0
1.235723583e1,-5.985899913e-1,-1.843730591e0,-2.500524352e0,3.163901785e0
1.236720367e1,-3.900923145e-1,-1.605360074e0,-2.243029346e0,2.785773435e0
1.237717467e1,-7.908826947e-2,-1.336962351e0,-1.850508683e0,2.284317331e0
1.238714567e1,3.412856054e-1,-1.045003856e0,-1.329116557e0,1.724836150e0
1.239711667e1,8.316717017e-1,-8.120835292e-1,-7.680481482e-1,1.393217656e0
1.240708767e1,1.287796623e0,-6.877231926e-1,-1.888574642e-1,1.472090511e0
1.241705867e1,1.714894795e0,-6.292978138e-1,2.900873852e-1,1.849602819e0
1.242702967e1,2.057327625e0,-6.188704741e-1,6.859988487e-1,2.255258752e0
1.243700067e1,2.263611546e0,-5.979380268e-1,9.894289953e-1,2.541738942e0
1.244697167e1,2.341201758e0,-5.019653374e-1,1.284494700e0,2.717190002e0
1.245694367e1,2.299069061e0,-3.646358764e-1,1.513719002e0,2.776692833e0
1.246691467e1,2.211305863e0,-2.368332839e-1,1.659321104e0,2.774763080e0
1.247688567e1,2.099316480e0,-1.237221131e-1,1.705949725e0,2.707896104e0
1.248685667e1,1.999491060e0,-1.545594513e-2,1.674292899e0,2.607960908e0
1.249682767e1,1.968023685e0,8.304040253e-2,1.654038144e0,2.572130462e0
1.250679867e1,1.969122376e0,1.726010352e-1,1.627201763e0,2.560277256e0
1.251676967e1,2.014310244e0,2.539311272e-1,1.572428555e0,2.567967745e0
1.252674067e1,2.101383471e0,3.136928871e-1,1.520164388e0,2.612492198e0
1.253671167e1,2.206469631e0,3.654702741e-1,1.483567834e0,2.683849897e0
1.254668267e1,2.431386289e0,3.855808952e-1,1.477877909e0,2.871312422e0
1.255665367e1,2.705571586e0,3.376003978e-1,1.571281332e0,3.146905887e0
1.256662467e1,2.958222758e0,2.508990535e-1,1.711709232e0,3.426949185e0
1.257659567e1,3.243087410e0,1.489256591e-1,1.876821738e0,3.749967285e0
1.258656667e1,3.500836185e0,-4.615908980e-2,1.986942351e0,4.025658276e0
1.259653767e1,3.658499338e0,-3.423284563e-1,1.905913391e0,4.139361307e0
1.260650867e1,3.624984852e0,-6.908213398e-1,1.712981002e0,4.068421465e0
1.261648067e1,3.425528140e0,-9.960015580e-1,1.431032941e0,3.843711412e0
1.262645167e1,2.990901092e0,-1.245838172e0,1.201327997e0,3.455544972e0
1.263642267e1,2.455062250e0,-1.467241239e0,1.018113681e0,3.035899038e0
1.264639367e1,1.951337485e0,-1.702689902e0,7.226187909e-1,2.688689049e0
1.265636467e1,1.450346294e0,-1.931736449e0,4.136139089e-1,2.450752241e0
1.266633567e1,9.354013073e-1,-2.082616832e0,6.980639935e-2,2.284106260e0
1.267630667e1,4.730017394e-1,-2.113340442e0,-3.098041964e-1,2.187673904e0
1.268627767e1,7.762938917e-2,-2.121297041e0,-7.303458863e-1,2.244845779e0
1.269624867e1,-2.176111472e-1,-2.118165272e0,-1.107469077e0,2.400097183e0
1.270621967e1,-4.326974666e-1,-2.118551188e0,-1.451846105e0,2.604485237e0
1.271619067e1,-5.970112431e-1,-2.082220099e0,-1.815869193e0,2.826560435e0
1.272616167e1,-6.887850469e-1,-1.986324885e0,-2.134738328e0,2.996167405e0
1.273613267e1,-6.696400934e-1,-1.853853583e0,-2.433592443e0,3.131702914e0
1.274610367e1,-6.386486810e-1,-1.751359494e0,-2.682623604e0,3.266741743e0
1.275607467e1,-6.260350674e-1,-1.654631344e0,-2.858906631e0,3.362004152e0
1.276604667e1,-6.481837356e-1,-1.536834800e0,-2.882702460e0,3.330461954e0
1.277601767e1,-6.781203103e-1,-1.369249506e0,-2.790880124e0,3.181776741e0
1.278598867e1,-6.171923232e-1,-1.229584375e0,-2.680730276e0,3.013157631e0
1.279595967e1,-5.397938991e-1,-1.189340913e0,-2.590348109e0,2.901001997e0
1.280593067e1,-4.791687977e-1,-1.149289240e0,-2.443921550e0,2.742849073e0
1.281590167e1,-3.849771702e-1,-1.019953215e0,-2.265360448e0,2.514034594e0
1.282587267e1,-3.029190999e-1,-8.596237314e-1,-2.125256483e0,2.312450661e0
1.283584367e1,-2.374337929e-1,-6.940709299e-1,-2.003891090e0,2.133937385e0
1.284581467e1,-1.413500065e-1,-5.249250144e-1,-1.900983603e0,1.977186070e0
1.285578567e1,-5.789912939e-2,-3.784382290e-1,-1.800935989e0,1.841178492e0
1.286575667e1,1.223646820e-2,-2.378126925e-1,-1.685300283e0,1.702040438e0
1.287572767e1,3.085166395e-2,-8.326084256e-2,-1.459612961e0,1.462311249e0
1.288569867e1,5.676710844e-2,9.647671938e-2,-1.143438224e0,1.148904362e0
1.289566967e1,7.867837965e-2,2.453672951e-1,-8.337439549e-1,8.726536422e-1
1.290564067e1,1.285153681e-1,3.139791083e-1,-5.832106447e-1,6.747101129e-1
1.291561167e1,1.467417240e-1,3.220359868e-1,-3.469310921e-1,4.955819741e-1
1.292558367e1,1.263162303e-1,3.274814987e-1,-1.056580174e-1,3.665563240e-1
1.293555467e1,7.595883965e-2,3.971072191e-1,1.175834137e-1,4.210578915e-1
1.294552567e1,8.400811672e-2,4.896785831e-1,2.320561087e-1,5.483543709e-1
1.295549667e1,1.656235528e-1,5.443173051e-1,2.374209291e-1,6.165072485e-1
1.296546767e1,2.758295345e-1,6.421681201e-1,2.290459621e-1,7.354752745e-1
1.297543867e1,4.393691397e-1,7.578090888e-1,1.638594478e-1,8.911620361e-1
1.298540967e1,6.547945976e-1,7.932204115e-1,1.286089236e-1,1.036578430e0
1.299538067e1,9.257452154e-1,7.768312508e-1,1.630221266e-1,1.219445452e0
1.300535167e1,1.194877349e0,7.624266350e-1,2.036076504e-1,1.431950533e0
1.301532267e1,1.412086793e0,7.641942483e-1,1.721069455e-1,1.614807344e0
1.302529367e1,1.584428211e0,7.547691214e-1,6.235587716e-2,1.756125690e0
1.303526467e1,1.712758808e0,7.734632546e-1,-3.131593287e-2,1.879566127e0
1.304523567e1,1.703907292e0,8.408664483e-1,-1.275230956e-1,1.904368290e0
1.305520667e1,1.582896241e0,9.362023759e-1,-1.570339930e-1,1.845723455e0
1.306517767e1,1.469306476e0,1.075597073e0,-2.418876171e-2,1.821086401e0
1.307514967e1,1.476984454e0,1.177138943e0,2.785403037e-1,1.909115992e0
1.308512067e1,1.617512342e0,1.195907921e0,7.416456306e-1,2.143963660e0
1.309509167e1,1.863110018e0,1.166561623e0,1.245475645e0,2.526510348e0
1.310506267e1,2.145130000e0,1.045473973e0,1.674266002e0,2.915092655e0
1.311503367e1,2.407983393e0,8.632478356e-1,2.088036032e0,3.302041083e0
1.312500467e1,2.674173793e0,7.176892957e-1,2.310084046e0,3.605935620e0
1.313497567e1,2.965990784e0,5.216064271e-1,2.312717047e0,3.797082398e0
1.314494667e1,3.201701987e0,3.108026084e-1,2.160438595e0,3.874917909e0
1.315491767e1,3.322514818e0,7.131936640e-2,1.872414107e0,3.814462709e0
1.316488867e1,3.192624185e0,-3.366092947e-1,1.290923129e0,3.460149929e0
1.317485967e1,2.757929894e0,-6.074070078e-1,5.661385292e-1,2.880214126e0
1.318483067e1,2.115344868e0,-6.315963542e-1,-7.081095099e-2,2.208758034e0
1.319480167e1,1.550745910e0,-6.065117991e-1,-5.735896361e-1,1.761157151e0
1.320477267e1,1.200898812e0,-5.908690354e-1,-8.909975517e-1,1.607843528e0
1.321474367e1,1.030682271e0,-5.570300290e-1,-9.318555558e-1,1.496978014e0
1.322471567e1,1.038077829e0,-5.685923132e-1,-7.501299405e-1,1.401284313e0
1.323468667e1,1.273353415e0,-6.762819457e-1,-5.436320114e-1,1.540883498e0
1.324465767e1,1.658673817e0,-8.653341222e-1,-4.454841578e-1,1.923137569e0
1.325462867e1,2.009945882e0,-1.044337274e0,-4.222356284e-1,2.304084572e0
1.326459967e1,2.171358855e0,-1.211623775e0,-4.656131977e-1,2.529748426e0
1.327457067e1,2.203836045e0,-1.416960447e0,-5.727651787e-1,2.681926578e0
1.328454167e1,2.134353581e0,-1.680931828e0,-7.273690689e-1,2.812483383e0
1.329451267e1,1.944542436e0,-1.953445407e0,-8.493963665e-1,2.884210192e0
1.330448367e1,1.644008415e0,-2.180952966e0,-9.215089077e-1,2.882446561e0
1.331445467e1,1.259085039e0,-2.418394361e0,-8.582367718e-1,2.858408084e0
1.332442567e1,8.180313170e-1,-2.599073324e0,-7.357147998e-1,2.822345416e0
1.333439667e1,3.932562429e-1,-2.676077646e0,-6.002283812e-1,2.770616565e0
1.334436767e1,4.402719498e-2,-2.717653103e0,-4.611541110e-1,2.756853260e0
1.335433867e1,-2.750734895e-1,-2.777841418e0,-4.882354903e-1,2.833803497e0
1.336431067e1,-5.647527391e-1,-2.796426208e0,-6.636624849e-1,2.929060103e0
1.337428042e1,-8.207473487e-1,-2.731136198e0,-9.033024323e-1,2.991435513e0
1.338425142e1,-1.040759363e0,-2.610169585e0,-1.144509434e0,3.034150154e0
1.339422242e1,-1.222512460e0,-2.448968282e0,-1.367777762e0,3.059869011e0
1.340419342e1,-1.325753238e0,-2.300352525e0,-1.549599271e0,3.074166764e0
1.341416442e1,-1.366360397e0,-2.154919408e0,-1.701362584e0,3.066798499e0
1.342413542e1,-1.312717456e0,-2.032582208e0,-1.731630111e0,2.975426086e0
1.343410642e1,-1.170012649e0,-1.918101912e0,-1.658957407e0,2.792880989e0
1.344407742e1,-9.982886964e-1,-1.813986390e0,-1.504868656e0,2.559639939e0
1.345404842e1,-7.880643368e-1,-1.690530033e0,-1.292024744e0,2.268978874e0
1.346401942e1,-5.587377083e-1,-1.564071130e0,-1.062267176e0,1.971526789e0
1.347399042e1,-3.237603307e-1,-1.416773336e0,-7.916843480e-1,1.654941553e0
1.348396142e1,-9.590720057e-2,-1.255674359e0,-5.457054341e-1,1.372483409e0
1.349393242e1,7.831643701e-2,-1.170939433e0,-3.105953246e-1,1.213961316e0
1.350390442e1,2.275110680e-1,-1.079507107e0,-1.532888514e-1,1.113819712e0
1.351387542e1,3.306138521e-1,-9.274827155e-1,-8.188265383e-2,9.880457863e-1
1.352384642e1,4.501496512e-1,-7.402972627e-1,-5.885690331e-2,8.684117000e-1
1.353381742e1,5.755081075e-1,-5.724763262e-1,-9.431617320e-2,8.172112741e-1
1.354378842e1,6.979739463e-1,-4.020074782e-1,-1.617006558e-1,8.215380359e-1
1.355375942e1,8.391789418e-1,-2.096805686e-1,-1.662141216e-1,8.808032536e-1
1.356373042e1,9.643748456e-1,-7.245723456e-2,-1.126249748e-1,9.736289225e-1
1.357370142e1,1.059716620e0,2.314854205e-2,-2.238664985e-2,1.060205797e0
1.358367242e1,1.146670564e0,1.248956493e-1,5.921533763e-2,1.154971325e0
1.359364342e1,1.247581227e0,1.839984280e-1,1.232487810e-1,1.267085081e0
1.360361442e1,1.406598011e0,1.855470631e-1,1.363190621e-1,1.425317005e0
1.361358542e1,1.619172367e0,1.509341776e-1,1.585507607e-1,1.633902881e0
1.362355642e1,1.767233807e0,1.427755576e-1,1.420043099e-1,1.778669563e0
1.363352742e1,1.868506998e0,1.654045746e-1,8.343275070e-2,1.877668261e0
1.364349942e1,1.974253308e0,1.176398394e-1,-4.323957503e-2,1.978227721e0
1.365347042e1,2.046858770e0,1.006568938e-2,-1.897906798e-1,2.055663553e0
1.366344142e1,2.024928203e0,-7.432308108e-2,-3.213699889e-1,2.051618097e0
1.367341242e1,1.925130265e0,-9.171386987e-2,-4.384318310e-1,1.976552666e0
1.368338342e1,1.807173214e0,-1.190800086e-1,-5.293115956e-1,1.886856073e0
1.369335442e1,1.761000091e0,-2.543898413e-1,-5.954956448e-1,1.876286379e0
1.370332542e1,1.767296957e0,-3.702278611e-1,-5.411481142e-1,1.885006230e0
1.371329642e1,1.805082250e0,-3.632325447e-1,-3.400348860e-1,1.872400474e0
1.372326742e1,1.958126103e0,-3.657924557e-1,6.950000525e-3,1.992011611e0
1.373323842e1,2.238994183e0,-5.055090424e-1,5.685861737e-1,2.364725054e0
1.374320942e1,2.580594953e0,-6.959312215e-1,1.158546844e0,2.913077645e0
1.375318042e1,2.858292089e0,-9.106155449e-1,1.706543217e0,3.451281514e0
1.376315142e1,2.978602059e0,-1.239174685e0,2.049298228e0,3.821942877e0
1.377312242e1,2.851176612e0,-1.606711658e0,2.240160702e0,3.965986686e0
1.378309342e1,2.548628810e0,-1.899530278e0,2.377038174e0,3.969135242e0
1.379306542e1,2.156761866e0,-2.108403638e0,2.329860499e0,3.811198970e0
1.380303642e1,1.702791059e0,-2.259438388e0,2.103311298e0,3.525404606e0
1.381300742e1,1.174989215e0,-2.322597672e0,1.853057485e0,3.195134057e0
1.382297842e1,6.886792123e-1,-2.315735380e0,1.601442440e0,2.898538821e0
1.383294942e1,2.630364114e-1,-2.274298794e0,1.296000851e0,2.630825225e0
1.384292042e1,-1.211326736e-1,-2.195087441e0,8.996198559e-1,2.375373209e0
1.385289142e1,-4.074807644e-1,-2.049308753e0,4.989563602e-1,2.148176992e0
1.386286242e1,-5.750479317e-1,-1.889830039e0,1.234095794e-1,1.979234101e0
1.387283342e1,-6.382107246e-1,-1.780947282e0,-3.282819825e-1,1.920118541e0
1.388280442e1,-5.745643669e-1,-1.689140149e0,-7.719423938e-1,1.944019988e0
1.389277542e1,-3.936713952e-1,-1.557556747e0,-1.150108142e0,1.975780587e0
1.390274642e1,-2.124153113e-1,-1.418453533e0,-1.477867969e0,2.059423323e0
1.391271742e1,-1.262267679e-1,-1.301166573e0,-1.753481741e0,2.187159314e0
1.392268942e1,-1.077735400e-1,-1.176994225e0,-1.970440339e0,2.297730548e0
1.393266042e1,-1.650984728e-1,-1.059532726e0,-2.193816256e0,2.441863401e0
1.394263142e1,-2.844875067e-1,-9.264696854e-1,-2.301795618e0,2.497507214e0
1.395260242e1,-4.168865955e-1,-8.114777577e-1,-2.305749505e0,2.479671624e0
1.396257342e1,-5.339683181e-1,-7.214885241e-1,-2.210446322e0,2.385736951e0
1.397254442e1,-5.695275754e-1,-6.344819552e-1,-2.046706742e0,2.217191354e0
1.398251542e1,-5.480256093e-1,-5.760966298e-1,-1.906437886e0,2.065605192e0
1.399248642e1,-5.976070744e-1,-5.366153526e-1,-1.806512479e0,1.977012288e0
1.400245742e1,-6.943814170e-1,-4.389650971e-1,-1.725319211e0,1.910911377e0
1.401242842e1,-8.227067506e-1,-2.366558209e-1,-1.653651059e0,1.862099406e0
1.402239942e1,-8.335872495e-1,-7.650789320e-3,-1.587400936e0,1.792977403e0
1.403237042e1,-6.803872758e-1,1.962047830e-1,-1.363364283e0,1.536289469e0
1.404234142e1,-4.028830987e-1,3.891465273e-1,-1.045446491e0,1.186047291e0
1.405231242e1,-1.721858829e-1,5.841985318e-1,-7.733240908e-1,9.843607328e-1
1.406228442e1,2.075059891e-2,7.586452407e-1,-5.297729409e-1,9.255444654e-1
1.407225542e1,1.572117484e-1,8.962904513e-1,-3.826148951e-1,9.871404484e-1
1.408222642e1,2.313181901e-1,1.015724801e0,-3.247280449e-1,1.091170601e0
1.409219742e1,3.233171117e-1,1.141463327e0,-2.602572298e-1,1.214580712e0
1.410216842e1,4.407438201e-1,1.258762858e0,-2.709055942e-1,1.360929421e0
1.411213942e1,5.937718856e-1,1.313093432e0,-3.239912957e-1,1.477074735e0
1.412211042e1,7.823872751e-1,1.284140359e0,-3.462481374e-1,1.543059973e0
1.413208142e1,1.003714913e0,1.225148092e0,-3.224230725e-1,1.616288375e0
1.414205242e1,1.212897298e0,1.167688966e0,-2.701384395e-1,1.705166313e0
1.415202342e1,1.341737187e0,1.065063899e0,-1.488671869e-1,1.719529362e0
1.416199442e1,1.393769220e0,9.962994736e-1,-5.141982973e-2,1.714015542e0
1.417196542e1,1.432347980e0,9.607139039e-1,-3.058269203e-2,1.724971664e0
1.418193642e1,1.455343909e0,9.202432778e-1,-2.283337712e-2,1.722032214e0
1.419190842e1,1.452602735e0,8.715675464e-1,-5.356283426e-2,1.694860959e0
1.420187942e1,1.378667616e0,8.176699591e-1,-7.425203741e-2,1.604625166e0
1.421185042e1,1.271353083e0,8.045640099e-1,-5.867213130e-2,1.505690647e0
1.422182142e1,1.149621069e0,7.543168393e-1,4.227946222e-2,1.375648956e0
1.423179242e1,1.007927247e0,6.563771465e-1,1.704018974e-1,1.214818958e0
1.424176342e1,8.807275021e-1,6.018658939e-1,2.472284639e-1,1.095009315e0
1.425173442e1,7.236385453e-1,6.067471495e-1,3.557872850e-1,1.009147878e0
1.426170542e1,6.334165925e-1,6.429861456e-1,4.115024793e-1,9.919586955e-1
1.427167642e1,5.724476749e-1,5.859199521e-1,5.843029046e-1,1.006185080e0
1.428164742e1,6.443415302e-1,5.020989463e-1,9.404901391e-1,1.245713073e0
1.429161842e1,9.078667688e-1,3.982184824e-1,1.332635411e0,1.660938641e0
1.430158942e1,1.331788149e0,2.139054742e-1,1.626765561e0,2.113239555e0
1.431156042e1,1.789374290e0,-5.119500428e-2,1.724815766e0,2.485854120e0
1.432153142e1,2.094565033e0,-2.796360719e-1,1.691151007e0,2.706545905e0
1.433150342e1,2.204009707e0,-4.227244556e-1,1.539643802e0,2.721554297e0
1.434147442e1,2.111285731e0,-4.691250354e-1,1.340725034e0,2.544631477e0
1.435144542e1,1.848263353e0,-5.155595291e-1,1.063698574e0,2.193931108e0
1.436141642e1,1.527683322e0,-5.360931963e-1,8.477176309e-1,1.827522211e0
1.437138804e1,1.218350412e0,-5.230752477e-1,7.567595136e-1,1.526653334e0
1.438135904e1,1.021304507e0,-5.262710434e-1,7.457971537e-1,1.369758191e0
1.439133004e1,8.821097839e-1,-5.919253349e-1,7.584113520e-1,1.305251337e0
1.440130104e1,8.362524104e-1,-7.095517257e-1,7.824030626e-1,1.347195716e0
1.441127204e1,8.751662153e-1,-8.638337266e-1,7.708723533e-1,1.451333455e0
1.442124304e1,9.900739431e-1,-1.061137201e0,7.345283997e-1,1.626588621e0
1.443121404e1,1.054322564e0,-1.236338786e0,6.487468225e-1,1.749571977e0
1.444118504e1,1.026151848e0,-1.368928786e0,4.705546796e-1,1.774366181e0
1.445115604e1,9.118007755e-1,-1.451495857e0,2.740742004e-1,1.735896755e0
1.446112704e1,7.052151382e-1,-1.533800679e0,7.285689175e-2,1.689728097e0
1.447109904e1,5.276123947e-1,-1.593581150e0,-1.188709706e-1,1.682856509e0
1.448107004e1,3.477824467e-1,-1.616084452e0,-2.781941485e-1,1.676327406e0
1.449104104e1,1.519551015e-1,-1.583552883e0,-4.037537491e-1,1.641263896e0
1.450101204e1,-3.905355334e-3,-1.539772441e0,-5.348249352e-1,1.630015991e0
1.451098304e1,-1.037570876e-1,-1.543218790e0,-6.609014297e-1,1.681987059e0
1.452095404e1,-1.267600340e-1,-1.559420255e0,-7.721183950e-1,1.744713860e0
1.453092504e1,-6.060346663e-2,-1.590143280e0,-8.856245452e-1,1.821142297e0
1.454089604e1,3.063239336e-2,-1.620763394e0,-9.795074397e-1,1.894002943e0
1.455086704e1,5.641744494e-2,-1.615252978e0,-1.077040751e0,1.942226014e0
1.456083804e1,-5.524273932e-2,-1.530891690e0,-1.158383122e0,1.920555280e0
1.457080904e1,-2.064353639e-1,-1.396777613e0,-1.265673097e0,1.896188716e0
1.458078004e1,-3.317756939e-1,-1.256238030e0,-1.383716687e0,1.898125646e0
1.459075104e1,-4.050003755e-1,-1.179179329e0,-1.436388406e0,1.902025459e0
1.460072304e1,-4.334728074e-1,-1.087562816e0,-1.421952215e0,1.841911956e0
1.461069404e1,-3.869944596e-1,-9.652045655e-1,-1.357990108e0,1.710415650e0
1.462066504e1,-3.426041526e-1,-8.372107691e-1,-1.240437684e0,1.535247578e0
1.463063604e1,-2.763692325e-1,-7.097590095e-1,-1.147123724e0,1.376964285e0
1.464060704e1,-2.105629134e-1,-5.885760498e-1,-1.135201836e0,1.295932758e0
1.465057804e1,-2.440937716e-1,-4.855679905e-1,-1.205947298e0,1.322749760e0
1.466054904e1,-2.973203909e-1,-3.342894119e-1,-1.266437328e0,1.343135262e0
1.467052004e1,-2.458017433e-1,-1.795679927e-1,-1.289374201e0,1.324820362e0
1.468049104e1,-1.496998304e-1,-1.097048753e-1,-1.320795384e0,1.333771212e0
1.469046204e1,-3.739294410e-2,-1.114683956e-1,-1.327757664e0,1.332953056e0
1.470043304e1,9.410041094e-2,-8.606224358e-2,-1.315594870e0,1.321760742e0
1.471040404e1,2.195150006e-1,-8.467294514e-2,-1.251273159e0,1.273201030e0
1.472037504e1,3.169775605e-1,-1.104240829e-1,-1.222745179e0,1.267980293e0
1.473034704e1,3.905244237e-1,-1.244445366e-1,-1.257883437e0,1.322976382e0
1.474031804e1,4.631445032e-1,-1.361448151e-1,-1.324359847e0,1.409598257e0
1.475028904e1,4.207188606e-1,-1.690921211e-1,-1.385380220e0,1.457695050e0
1.476026004e1,2.894231415e-1,-1.320669669e-1,-1.265309985e0,1.304690307e0
1.477023104e1,2.294494200e-1,-7.361469090e-2,-9.854721844e-1,1.014505587e0
1.478020204e1,2.697197789e-1,-7.706864119e-2,-6.014375854e-1,6.636380818e-1
1.479017304e1,4.322951782e-1,-1.682910526e-1,-1.963307905e-1,5.037328446e-1
1.480014404e1,6.442643470e-1,-2.706106022e-1,1.197041988e-1,7.089680825e-1
1.481011504e1,8.071783000e-1,-3.306767097e-1,3.670133543e-1,9.463523110e-1
1.482008604e1,9.708091217e-1,-3.480151659e-1,4.954772669e-1,1.144151488e0
1.483005704e1,1.132790444e0,-3.705555975e-1,4.863614577e-1,1.287273517e0
1.484002804e1,1.191480702e0,-4.634932896e-1,3.305588883e-1,1.320500462e0
1.484999904e1,1.128787440e0,-4.751666710e-1,1.088079125e-1,1.229546100e0
1.485997104e1,1.036899031e0,-3.529747742e-1,-4.352024138e-2,1.096195604e0
1.486994204e1,1.043220456e0,-2.362912470e-1,-2.365660661e-1,1.095493485e0
1.487991304e1,1.127591684e0,-2.659649894e-1,-3.680488962e-1,1.215590545e0
1.488988404e1,1.115228916e0,-2.638570681e-1,-4.296990144e-1,1.223927012e0
1.489985504e1,1.074020079e0,-5.074038327e-2,-3.665584409e-1,1.135983630e0
1.490982604e1,1.140995842e0,1.895772564e-1,-1.203871536e-1,1.162886114e0
1.491979704e1,1.472335918e0,1.714400706e-1,2.510735929e-1,1.503397054e0
1.492976804e1,1.954099710e0,-9.612354755e-2,6.170245081e-1,2.051454278e0
1.493973904e1,2.369344407e0,-3.810039872e-1,9.797699797e-1,2.592085294e0
1.494971004e1,2.693730390e0,-6.140488601e-1,1.244944718e0,3.030367431e0
1.495968104e1,2.871240163e0,-9.030109486e-1,1.312470703e0,3.283599883e0
1.496965204e1,2.898596946e0,-1.168201474e0,1.233703446e0,3.359848677e0
1.497962304e1,2.840908316e0,-1.360612584e0,1.120788449e0,3.343380537e0
1.498959504e1,2.658374031e0,-1.498081501e0,9.523886383e-1,3.196598941e0
1.499956604e1,2.335022421e0,-1.612875500e0,7.742514592e-1,2.941625810e0
1.500953704e1,1.973480306e0,-1.736081597e0,6.657294756e-1,2.711420212e0
1.501950804e1,1.575974307e0,-1.790098175e0,6.488795543e-1,2.471677804e0
1.502947904e1,1.195200700e0,-1.740857310e0,6.689255637e-1,2.215073429e0
1.503945004e1,8.478509474e-1,-1.667684961e0,6.255210972e-1,1.972638082e0
1.504942104e1,4.452426678e-1,-1.612612376e0,4.738817453e-1,1.738770720e0
1.505939204e1,6.879658520e-2,-1.554434334e0,2.389657634e-1,1.574199385e0
1.506936304e1,-2.412707359e-1,-1.483902003e0,-9.658138454e-2,1.506487533e0
1.507933404e1,-5.022384024e-1,-1.377568632e0,-5.182936871e-1,1.555174297e0
1.508930504e1,-6.626555943e-1,-1.186184878e0,-8.541513222e-1,1.604905444e0
1.509927604e1,-7.344459540e-1,-9.317020664e-1,-1.105007399e0,1.621271400e0
1.510924704e1,-6.955461824e-1,-6.780103827e-1,-1.363321014e0,1.673955423e0
1.511921904e1,-6.088226187e-1,-4.411654043e-1,-1.671744683e0,1.833036328e0
1.512919004e1,-5.620390463e-1,-2.332781768e-1,-1.920565343e0,2.014665688e0
1.513916104e1,-5.616776884e-1,-4.034812689e-2,-2.054248481e0,2.130034417e0
1.514913204e1,-4.519587797e-1,1.593790188e-1,-2.092385191e0,2.146565675e0
1.515910304e1,-2.805529153e-1,2.722267726e-1,-2.134261780e0,2.169767430e0
1.516907404e1,-1.923874283e-1,3.324764827e-1,-2.132832720e0,2.167147652e0
1.517904504e1,-1.568533140e-1,5.025123444e-1,-2.011448616e0,2.079193871e0
1.518901604e1,-7.954259813e-2,7.012568656e-1,-1.779407126e0,1.914256497e0
1.519898704e1,3.393607020e-2,7.973900610e-1,-1.486598446e0,1.687292952e0
1.520895804e1,2.100582987e-1,8.620819008e-1,-1.094085385e0,1.408663381e0
1.521892904e1,4.767334324e-1,9.535963807e-1,-7.060021734e-1,1.278694605e0
1.522890004e1,7.347377300e-1,9.912580043e-1,-3.229124844e-1,1.275423238e0
1.523887204e1,1.036032473e0,9.550654936e-1,6.553968608e-2,1.410605839e0
1.524884304e1,1.328834721e0,9.203698701e-1,3.707239974e-1,1.658408483e0
1.525881404e1,1.542491981e0,8.723905420e-1,4.786834788e-1,1.835615603e0
1.526878504e1,1.666947042e0,8.162906009e-1,4.923139232e-1,1.920264509e0
1.527875604e1,1.715583013e0,8.067084762e-1,5.059291649e-1,1.962133522e0
1.528872704e1,1.654332259e0,8.341038510e-1,4.666896701e-1,1.910587267e0
1.529869804e1,1.526450729e0,8.532277545e-1,4.433750671e-1,1.804059556e0
1.530866904e1,1.335970663e0,8.353300121e-1,4.114451766e-1,1.628459694e0
1.531864004e1,1.146784000e0,8.579613680e-1,4.387885112e-1,1.497914086e0
1.532861104e1,1.015517517e0,9.086491263e-1,4.412016571e-1,1.432333050e0
1.533858204e1,9.089865106e-1,9.285974872e-1,4.283787131e-1,1.368231739e0
1.534855304e1,8.210303539e-1,9.058553267e-1,3.906255805e-1,1.283453567e0
1.535852404e1,7.237636757e-1,9.116025549e-1,3.422141433e-1,1.213245068e0
1.536849604e1,6.650927138e-1,9.409631789e-1,3.071729493e-1,1.192524735e0
1.537846717e1,6.274898547e-1,9.710699075e-1,2.865790558e-1,1.191153994e0
1.538843817e1,6.127694893e-1,9.781353906e-1,2.920684218e-1,1.190604574e0
1.539840917e1,6.004330337e-1,9.742081082e-1,3.814793658e-1,1.206286770e0
1.540838017e1,6.170818108e-1,9.480596521e-1,4.731964517e-1,1.226181857e0
1.541835117e1,5.971983540e-1,8.579286236e-1,4.612739789e-1,1.142567758e0
1.542832217e1,4.440083206e-1,7.085340178e-1,3.533291155e-1,9.077473806e-1
1.543829317e1,1.700873172e-1,5.910678408e-1,1.435742873e-1,6.315888408e-1
1.544826417e1,-2.172076893e-1,5.375626016e-1,-1.340433258e-1,5.950801157e-1
1.545823517e1,-6.167239612e-1,6.090307796e-1,-2.942967957e-1,9.153565091e-1
1.546820617e1,-8.911174196e-1,7.802048019e-1,-2.855633944e-1,1.218341594e0
1.547817717e1,-9.412502772e-1,8.288770249e-1,-8.840697706e-2,1.257300680e0
1.548814817e1,-8.124951732e-1,7.562914440e-1,2.144975048e-1,1.130546034e0
1.549812017e1,-5.311020130e-1,5.768944824e-1,4.151429558e-1,8.872543411e-1
1.550809117e1,-8.059275806e-2,2.604197824e-1,4.866023630e-1,5.577593705e-1
1.551806217e1,3.040294862e-1,-4.964666158e-2,4.779549158e-1,5.686295991e-1
1.552803317e1,5.409984255e-1,-2.388669455e-1,3.773447996e-1,7.015167937e-1
1.553800417e1,7.132012653e-1,-3.862278897e-1,3.242158288e-1,8.734666171e-1
1.554797517e1,6.626830763e-1,-5.501905409e-1,2.461379582e-1,8.957914854e-1
1.555794617e1,3.853613323e-1,-5.952705270e-1,9.584346592e-2,7.155671364e-1
1.556791717e1,-1.825734615e-2,-5.261871359e-1,6.151855588e-3,5.265397212e-1
1.557788817e1,-3.983555996e-1,-4.304328400e-1,-1.842457652e-2,5.867700389e-1
1.558785917e1,-6.771777391e-1,-3.453695932e-1,4.262854099e-2,7.613586795e-1
1.559783017e1,-8.544056761e-1,-2.376296747e-1,1.873962450e-1,9.064183771e-1
1.560780117e1,-9.240179479e-1,-1.354188833e-1,3.719121516e-1,1.005219424e0
1.561777317e1,-8.163566744e-1,-9.735672534e-2,6.642799509e-1,1.056969444e0
1.562774417e1,-5.630552924e-1,-1.264849225e-1,9.078615063e-1,1.075751929e0
1.563771517e1,-2.625920230e-1,-1.896959549e-1,1.028125284e0,1.077952098e0
1.564768617e1,2.427880883e-2,-2.739075547e-1,1.144188421e0,1.176767587e0
1.565765717e1,2.315275204e-1,-3.331696701e-1,1.268661609e0,1.331956944e0
1.566762817e1,3.174915308e-1,-4.034239662e-1,1.314026062e0,1.410750248e0
1.567759917e1,2.688818729e-1,-5.204045320e-1,1.297975456e0,1.424029010e0
1.568757017e1,8.079273283e-2,-6.252737600e-1,1.214536858e0,1.368427754e0
1.569754117e1,-1.729781806e-1,-6.933569849e-1,1.085560144e0,1.299656180e0
1.570751217e1,-4.024316937e-1,-7.579359734e-1,9.295231014e-1,1.265081580e0
1.571748317e1,-4.892546600e-1,-8.309127331e-1,7.053741825e-1,1.194712865e0
1.572745417e1,-4.615084523e-1,-8.704524824e-1,4.001401699e-1,1.063385975e0
1.573742517e1,-4.349503988e-1,-8.960542238e-1,5.634318531e-2,9.976319842e-1
1.574739717e1,-4.596706724e-1,-9.073715097e-1,-3.442548215e-1,1.073839637e0
1.575736817e1,-5.338940585e-1,-9.532639664e-1,-7.229941821e-1,1.310143367e0
1.576733917e1,-6.234032357e-1,-9.895722520e-1,-1.054002721e0,1.574422616e0
1.577731017e1,-6.772742182e-1,-9.652706391e-1,-1.344614602e0,1.788417233e0
1.578728117e1,-6.970763987e-1,-8.862569216e-1,-1.586598113e0,1.946448152e0
1.579725217e1,-7.427069002e-1,-7.789575908e-1,-1.816588401e0,2.111488074e0
1.580722317e1,-8.031407976e-1,-6.494467342e-1,-1.915931425e0,2.176605023e0
1.581719417e1,-8.559452480e-1,-4.931120682e-1,-1.895610597e0,2.137554985e0
1.582716517e1,-9.305966502e-1,-3.407687116e-1,-1.841821475e0,2.091516145e0
1.583713617e1,-9.421039706e-1,-2.343078715e-1,-1.724884763e0,1.979314911e0
1.584710717e1,-8.968272257e-1,-1.866463396e-1,-1.505008405e0,1.761870094e0
1.585707817e1,-8.461236799e-1,-1.762146145e-1,-1.257205744e0,1.525628774e0
1.586705017e1,-7.824077404e-1,-1.496583152e-1,-1.090256043e0,1.350265797e0
1.587702117e1,-6.474025476e-1,-8.096727222e-2,-9.655969137e-1,1.165359669e0
1.588699217e1,-4.509308392e-1,2.091636747e-2,-9.497714245e-1,1.051590165e0
1.589696317e1,-2.781064403e-1,7.920638323e-2,-1.029166673e0,1.069018655e0
1.590693417e1,-1.270342684e-1,1.095961171e-1,-1.102886029e0,1.115574564e0
1.591690517e1,3.114402473e-2,1.516247338e-1,-1.119831845e0,1.130479266e0
1.592687617e1,1.533788985e-1,2.020698327e-1,-1.052022269e0,1.082177508e0
1.593684717e1,1.652586865e-1,2.328296953e-1,-9.545684803e-1,9.963538950e-1
1.594681817e1,1.645809942e-1,2.850029388e-1,-7.314264518e-1,8.020587467e-1
1.595678917e1,2.454462326e-1,3.044893697e-1,-5.116325390e-1,6.439918356e-1
1.596676017e1,4.137004477e-1,2.888319880e-1,-2.988441753e-1,5.864126694e-1
1.597673117e1,5.804414034e-1,2.454523721e-1,-1.346847653e-1,6.444370223e-1
1.598670217e1,7.336723673e-1,2.118387759e-1,6.025380313e-2,7.660165340e-1
1.599667417e1,8.554102278e-1,1.903888500e-1,2.249219209e-1,9.047455125e-1
1.600664517e1,9.640105641e-1,1.559879261e-1,3.182183397e-1,1.027088853e0
1.601661617e1,1.092961550e0,1.288126990e-1,4.504554605e-1,1.189145821e0
1.602658717e1,1.133476907e0,1.175860450e-1,5.332596356e-1,1.258158263e0
1.603655817e1,1.170781558e0,1.527839443e-1,5.257290065e-1,1.292464073e0
1.604652917e1,1.256958407e0,2.005507261e-1,4.196037966e-1,1.340235941e0
1.605650017e1,1.348614682e0,1.885007840e-1,1.996666270e-1,1.376285170e0
1.606647117e1,1.397761114e0,1.565194380e-1,-3.888398409e-4,1.406497287e0
1.607644217e1,1.384987287e0,1.924976483e-1,-1.055188537e-1,1.402276491e0
1.608641317e1,1.307970101e0,2.684588268e-1,-1.879037833e-1,1.348393028e0
1.609638417e1,1.243684643e0,3.332141089e-1,-2.538381565e-1,1.312332634e0
1.610635517e1,1.233008212e0,3.323560300e-1,-1.876716489e-1,1.290732516e0
1.611632717e1,1.319692014e0,2.622251102e-1,6.402818084e-2,1.347014710e0
1.612629817e1,1.557550315e0,1.581835556e-1,4.245289063e-1,1.622100433e0
1.613626917e1,1.868341522e0,2.473547637e-2,7.903295481e-1,2.028776153e0
1.614624017e1,2.144801971e0,-2.236220849e-1,1.102569110e0,2.421949829e0
1.615621117e1,2.221674145e0,-5.101698580e-1,1.340018690e0,2.644193522e0
1.616618217e1,2.136778421e0,-7.204602912e-1,1.442701060e0,2.676989242e0
1.617615317e1,1.838993177e0,-8.783351138e-1,1.420013863e0,2.483909790e0
1.618612417e1,1.379085692e0,-9.772641554e-1,1.256338602e0,2.106017393e0
1.619609517e1,9.025305998e-1,-1.050491176e0,1.042163864e0,1.733262448e0
1.620606617e1,5.334923548e-1,-1.132997435e0,8.263267618e-1,1.500371020e0
1.621603717e1,2.351118636e-1,-1.180220134e0,6.274623728e-1,1.357168443e0
1.622600917e1,3.736897051e-2,-1.205823044e0,5.169336247e-1,1.312488486e0
1.623598017e1,-8.645459175e-2,-1.251079617e0,3.797901052e-1,1.310311080e0
1.624595117e1,-1.942094207e-1,-1.292774357e0,1.818875831e-1,1.319873452e0
1.625592217e1,-2.716417587e-1,-1.318344231e0,-2.292167008e-2,1.346234066e0
1.626589317e1,-4.019013512e-1,-1.338322413e0,-2.952165627e-1,1.428210207e0
1.627586417e1,-5.591885287e-1,-1.308367127e0,-5.831814086e-1,1.537731090e0
1.628583517e1,-6.962531108e-1,-1.236733765e0,-8.530766040e-1,1.655904132e0
1.629580617e1,-8.456909859e-1,-1.194166035e0,-1.127531458e0,1.847309653e0
1.630577717e1,-9.678568625e-1,-1.085437645e0,-1.346405604e0,1.981850105e0
