"Time (s)","Linear Acceleration x (m/s^2)","Linear Acceleration y (m/s^2)","Linear Acceleration z (m/s^2)","Absolute acceleration (m/s^2)"
1.144758333e-2,-1.041244243e0,-3.474243633e0,-6.061165858e0,7.063447455e0
2.141858335e-2,-5.760953142e-1,-3.276858004e0,-6.748376250e0,7.523979412e0
3.138958331e-2,6.643854931e-2,-3.201790865e0,-7.306118177e0,7.977170027e0
4.135958332e-2,4.949805459e-1,-2.798753107e0,-7.806287835e0,8.307596190e0
5.133058334e-2,-2.468217169e-1,-1.709587570e0,-7.957726042e0,8.143034716e0
6.130158331e-2,2.681840077e-1,-2.176647369e0,-7.775924413e0,8.079277004e0
7.127158332e-2,5.337414461e-1,-2.758585660e0,-7.635231634e0,8.135811998e0
8.124258334e-2,2.587743759e-2,-2.381892532e0,-6.856860811e0,7.258830612e0
9.121358331e-2,-8.027224293e-1,-1.522043683e0,-5.377517590e0,5.646120412e0
1.011835833e-1,-1.186572695e0,-3.453160912e-1,-4.020133254e0,4.205789978e0
1.111545833e-1,-8.818746527e-1,7.975379956e-1,-3.022175510e0,3.247662940e0
1.211255833e-1,4.647470789e-1,1.232255090e0,-2.095179575e0,2.474716127e0
1.310955833e-1,2.156066339e0,1.169763558e0,-6.472318089e-1,2.536903202e0
1.410665833e-1,3.235329909e0,1.447527936e0,1.540812660e0,3.864815701e0
1.510375833e-1,3.320648972e0,2.279001417e0,4.044055967e0,5.707446515e0
1.610075833e-1,3.083468071e0,2.108239039e0,6.133460248e0,7.181349581e0
1.709785833e-1,2.059823655e0,1.474426298e0,8.514109662e0,8.882953885e0
1.809485834e-1,2.984753622e-1,2.350276929e0,1.238261350e1,1.260722041e1
1.909195833e-1,-7.668895224e-1,3.817755565e0,1.746399243e1,1.789285915e1
2.008905833e-1,-1.487267075e-1,4.229054269e0,2.257565992e1,2.296883629e1
2.108605833e-1,1.642400139e0,4.166714764e0,2.658951151e1,2.696407077e1
2.208315833e-1,3.256920461e0,4.180410113e0,2.816760251e1,2.866177229e1
2.308025833e-1,3.509564031e0,4.451278285e0,2.772599506e1,2.829950035e1
2.407725833e-1,2.732768156e0,5.466518644e0,2.642201919e1,2.711962290e1
2.507435833e-1,2.099170007e0,5.920271350e0,2.518759478e1,2.595902653e1
2.607145833e-1,2.148330473e0,5.321441622e0,2.414456612e1,2.481719440e1
2.706845833e-1,2.484483393e0,4.960364946e0,2.311211389e1,2.376862820e1
2.806555833e-1,2.815560344e0,4.748510967e0,2.115414099e1,2.186260317e1
2.906265833e-1,3.120246765e0,4.299393935e0,1.796078941e1,1.872994085e1
3.005965833e-1,3.449082479e0,4.372724451e0,1.329581878e1,1.441512005e1
3.105675833e-1,3.959379514e0,4.405113348e0,8.164829158e0,1.008692941e1
3.205385833e-1,4.606165765e0,3.894299127e0,3.709138564e0,7.080963044e0
3.305085833e-1,4.626717266e0,3.102101393e0,6.316682750e-1,5.606117241e0
3.404795833e-1,3.343800730e0,2.173434616e0,-8.006820434e-1,4.067666787e0
3.504495833e-1,1.346529272e0,9.637506554e-1,-8.669368440e-1,1.869100291e0
3.604205833e-1,-7.572669058e-1,-2.353831744e-1,-2.992137194e-1,8.475772857e-1
3.703915833e-1,-2.611008368e0,-1.018588183e0,6.329336125e-1,2.873237119e0
3.803615833e-1,-3.727963091e0,-1.257526464e0,1.285200459e0,4.138939699e0
3.903325833e-1,-3.824123476e0,-1.508897973e0,9.855961454e-1,4.227539853e0
4.003035833e-1,-2.929993570e0,-1.870379276e0,-3.106397635e-1,3.489939544e0
4.102735833e-1,-1.399238413e0,-2.310772848e0,-2.353683810e0,3.582927123e0
4.202445833e-1,9.142837957e-2,-2.808486675e0,-4.530734929e0,5.331370888e0
4.302155833e-1,1.173406008e0,-3.494962949e0,-6.739739327e0,7.682169868e0
4.401855833e-1,1.764196179e0,-4.042309696e0,-8.995019760e0,1.001813537e1
4.501565833e-1,1.717521072e0,-4.233290285e0,-1.067514233e1,1.161160149e1
4.601275834e-1,1.096377128e0,-4.257680775e0,-1.169955580e1,1.249837967e1
4.700975833e-1,2.896517676e-1,-4.404345024e0,-1.243398012e1,1.319416594e1
4.800689167e-1,-4.208283497e-1,-4.667117141e0,-1.282019690e1,1.364978123e1
4.900399167e-1,-9.962657060e-1,-4.904011821e0,-1.298261034e1,1.391366409e1
5.000099167e-1,-1.374010894e0,-4.916396223e0,-1.312117064e1,1.407920369e1
5.099809167e-1,-1.617828384e0,-4.752569812e0,-1.299678165e1,1.393271767e1
5.199519166e-1,-1.699733842e0,-4.642548895e0,-1.283664746e1,1.375579418e1
5.299219167e-1,-7.184720917e-1,-5.059652422e0,-1.292753541e1,1.390098761e1
5.398929167e-1,-5.680033524e-1,-5.178307630e0,-1.323049720e1,1.421912634e1
5.498629166e-1,-5.884567666e-1,-4.846035508e0,-1.310036858e1,1.398034329e1
5.598339167e-1,-4.574018066e-1,-4.683368307e0,-1.271293909e1,1.355588342e1
5.698049167e-1,-3.597483350e-1,-4.844659950e0,-1.241909545e1,1.333544453e1
5.797749166e-1,-6.654286364e-1,-5.141155007e0,-1.229043098e1,1.333900160e1
5.897459167e-1,-1.015362274e0,-5.285266653e0,-1.166657283e1,1.284810981e1
5.997169167e-1,-1.349545120e0,-5.501593167e0,-1.048394657e1,1.191645648e1
6.096869166e-1,-1.744245771e0,-5.712912710e0,-9.647642702e0,1.134710424e1
6.196579167e-1,-1.813896050e0,-5.939103477e0,-8.886940411e0,1.084162713e1
6.296289167e-1,-1.802353500e0,-6.018824415e0,-8.318149585e0,1.042431475e1
6.395989166e-1,-1.686506125e0,-5.880652370e0,-8.091868771e0,1.014419614e1
6.495699167e-1,-1.384883060e0,-5.766825208e0,-8.120511357e0,1.005568888e1
6.595409167e-1,-7.788390385e-1,-5.733070402e0,-8.559199296e0,1.033124286e1
6.695109166e-1,-8.256707042e-1,-5.607490336e0,-9.106702749e0,1.072649593e1
6.794819167e-1,-1.456913594e0,-5.359730360e0,-9.522173148e0,1.102366038e1
6.894529167e-1,-1.978237893e0,-5.179978180e0,-9.828570757e0,1.128478632e1
6.994229167e-1,-2.437403951e0,-5.049098783e0,-9.919455199e0,1.139429366e1
7.093939167e-1,-2.756511945e0,-4.749944412e0,-9.356323308e0,1.084901451e1
7.193649167e-1,-2.429317690e0,-4.598049245e0,-8.311670285e0,9.804463485e0
7.293349167e-1,-2.002618590e0,-3.932862976e0,-7.894567927e0,9.044451070e0
7.393059166e-1,-1.553073395e0,-2.971784205e0,-6.747184587e0,7.534456728e0
7.492769167e-1,-1.333400665e0,-2.292812541e0,-5.303487162e0,5.929748962e0
7.592469167e-1,-1.277445735e0,-9.290284270e-1,-4.625993673e0,4.888228604e0
7.692179166e-1,-1.263709895e0,4.806957981e-1,-3.771521339e0,4.006545190e0
7.791879167e-1,-1.383114424e0,1.806518618e0,-2.509582273e0,3.387405824e0
7.891589167e-1,-1.852774918e0,2.615496691e0,-9.841916442e-1,3.352943637e0
7.991299166e-1,-2.127600924e0,2.665510266e0,8.964009637e-1,3.526352982e0
8.090999167e-1,-1.530197040e0,2.259829566e0,4.363661267e0,5.146831287e0
8.190709167e-1,-6.730254851e-1,7.718105391e-1,8.864973006e0,8.923922972e0
8.290419166e-1,-5.838153930e-1,-5.505837661e-1,1.213003016e1,1.215654616e1
8.390119167e-1,-1.372921265e0,3.908822733e-1,1.572901478e1,1.579365720e1
8.489829167e-1,-1.133363910e0,1.819770455e0,1.890037615e1,1.902157451e1
8.589539166e-1,9.258235681e-1,2.195642926e0,1.939835895e1,1.954416351e1
8.689239167e-1,3.949351831e0,2.469936105e0,1.835196580e1,1.893390115e1
8.788949167e-1,7.369931180e0,3.043724838e0,1.757843530e1,1.930237120e1
8.888659166e-1,9.520159952e0,4.166822938e0,1.791267618e1,2.070893109e1
8.988359167e-1,9.855828137e0,6.054890041e0,2.048667430e1,2.352664162e1
9.088069167e-1,9.754844969e0,7.001608050e0,2.468948919e1,2.745451497e1
9.187779166e-1,9.550092434e0,7.200971206e0,2.901521489e1,3.138376885e1
9.287479167e-1,9.097894503e0,7.439935216e0,3.181238019e1,3.391388880e1
9.387189167e-1,8.823813871e0,7.026970348e0,3.130438345e1,3.327465141e1
9.486899166e-1,8.027849361e0,6.731076093e0,2.788426983e1,2.978735058e1
9.586599167e-1,6.972360277e0,6.669094437e0,2.331043975e1,2.522830216e1
9.686309167e-1,6.831327775e0,6.740997648e0,1.959966105e1,2.182326285e1
9.786019166e-1,7.287470237e0,6.662683550e0,1.688483624e1,1.956006824e1
9.885719166e-1,7.308099214e0,6.463937860e0,1.438515389e1,1.738169897e1
9.985429167e-1,6.404654109e0,5.895731170e0,1.173266625e1,1.460940442e1
1.008513917e0,4.900253230e0,4.676748382e0,9.292252443e0,1.149914834e1
1.018483917e0,3.183006100e0,2.990148848e0,7.374979666e0,8.571046788e0
1.028454917e0,1.381782867e0,1.507256659e0,6.118041725e0,6.450703921e0
1.038424917e0,-1.678669833e-1,5.491421351e-1,5.166795632e0,5.198606882e0
1.048395917e0,-1.243180174e0,-1.640988913e-1,3.747547170e0,3.951776206e0
1.058366917e0,-1.922082111e0,-7.961314479e-1,1.434850588e0,2.527255653e0
1.068336917e0,-2.278254143e0,-1.103735629e0,-1.229080637e0,2.814127483e0
1.078307917e0,-2.231483288e0,-1.482673795e0,-3.874658622e0,4.710713182e0
1.088278917e0,-2.142887592e0,-1.709317429e0,-5.982692131e0,6.580755157e0
1.098248917e0,-2.015761815e0,-2.242021871e0,-7.963071567e0,8.514720579e0
1.108219917e0,-1.526351765e0,-2.670641782e0,-9.734369774e0,1.020882129e1
1.118190917e0,-6.305217822e-1,-2.933249885e0,-1.149809350e1,1.188308321e1
1.128160917e0,2.947376758e-1,-3.219276379e0,-1.288325562e1,1.328265357e1
1.138131917e0,1.085747840e0,-3.694500060e0,-1.368549477e1,1.421692464e1
1.148102917e0,1.645078748e0,-4.162317073e0,-1.370914091e1,1.442122436e1
1.158072917e0,1.860614426e0,-4.592901356e0,-1.319202953e1,1.409206415e1
1.168043917e0,1.535199041e0,-4.819499089e0,-1.234668587e1,1.334260318e1
1.178014917e0,7.721426609e-1,-4.852490249e0,-1.148065242e1,1.248792401e1
1.187984917e0,-3.207414132e-1,-4.975458949e0,-1.072524829e1,1.182746878e1
1.197955917e0,-1.620051496e0,-5.162236558e0,-1.018024570e1,1.152868837e1
1.207926917e0,-2.838529084e0,-5.587280020e0,-9.622492658e0,1.148334926e1
1.217896917e0,-3.947695900e0,-6.231482971e0,-8.961945570e0,1.160741794e1
1.227867917e0,-4.878302490e0,-6.930353880e0,-8.133030830e0,1.174622623e1
1.237838917e0,-5.626221891e0,-7.497137942e0,-7.389326395e0,1.193581144e1
1.247808917e0,-6.028909693e0,-7.866748629e0,-6.919489169e0,1.208771345e1
1.257779917e0,-6.090974379e0,-8.019799499e0,-6.593497540e0,1.203708282e1
1.267750917e0,-5.877743965e0,-8.264086813e0,-6.986823950e0,1.231497925e1
1.277720917e0,-5.504864100e0,-8.993090179e0,-7.605606131e0,1.300094013e1
1.287691917e0,-5.341447871e0,-9.995355567e0,-7.928509845e0,1.383110504e1
1.297662917e0,-5.649149408e0,-1.069416216e1,-7.725212097e0,1.435119839e1
1.307632917e0,-6.464188120e0,-1.110928991e1,-6.847356162e0,1.456325296e1
1.317603917e0,-7.429985594e0,-1.151178768e1,-5.361896753e0,1.471311926e1
1.327574917e0,-8.680614390e0,-1.204885911e1,-3.684600139e0,1.530046896e1
1.337544917e0,-1.016150420e1,-1.274122324e1,-1.834087948e0,1.639996390e1
1.347515917e0,-1.166981219e1,-1.300915669e1,-4.167801762e-1,1.748131517e1
1.357486917e0,-1.347005528e1,-1.212827483e1,7.043994516e-2,1.812573864e1
1.367456917e0,-1.395714238e1,-1.231211362e1,-7.988951343e-1,1.862869289e1
1.377427917e0,-1.421919704e1,-1.215178765e1,-2.127997658e0,1.882498026e1
1.387398917e0,-1.381197823e1,-1.138390673e1,-3.368911597e0,1.821300746e1
1.397368917e0,-1.352328483e1,-1.033164999e1,-3.794573987e0,1.743619843e1
1.407339917e0,-1.282428060e1,-8.923916448e0,-4.648018088e0,1.630038435e1
1.417310917e0,-1.226223804e1,-7.450354954e0,-5.411485820e0,1.533474648e1
1.427280917e0,-1.149901268e1,-6.394422067e0,-5.523148928e0,1.426958655e1
1.437251917e0,-1.073741635e1,-4.935161693e0,-5.328909101e0,1.296322502e1
1.447222917e0,-1.021285445e1,-2.934553229e0,-4.520501424e0,1.154768080e1
1.457192917e0,-9.179628637e0,-7.699958557e-1,-2.930729150e0,9.666832412e0
1.467163917e0,-7.103447835e0,1.884577193e0,-1.055288232e0,7.424569725e0
1.477134917e0,-4.368274135e0,5.389134838e0,2.611129698e-1,6.942101498e0
1.487104917e0,-1.479278902e0,8.658061094e0,8.587255991e-1,8.825400707e0
1.497075917e0,8.986696833e-1,1.066088214e1,5.301062322e-1,1.071181721e1
1.507046917e0,2.295270710e0,1.198205117e1,5.974530002e-1,1.221453101e1
1.517016917e0,1.985601584e0,1.392875298e1,4.542517653e0,1.478469613e1
1.526987917e0,1.226874483e0,1.654445929e1,1.377741651e1,2.156482228e1
1.536958917e0,2.845121235e0,1.685549140e1,2.462441436e1,2.997605858e1
1.546928917e0,6.143257842e0,1.400828564e1,3.000907315e1,3.368257940e1
1.556899917e0,9.021463208e0,1.181748479e1,2.924023914e1,3.280291649e1
1.566870917e0,1.241490417e1,1.303549255e1,2.649539239e1,3.203216711e1
1.576840917e0,1.798660370e1,1.393486566e1,2.286993392e1,3.226038237e1
1.586811917e0,2.500065462e1,1.363677577e1,2.064569518e1,3.517440994e1
1.596782917e0,3.000071865e1,1.232598322e1,2.163775718e1,3.898930004e1
1.606752917e0,2.969705403e1,9.652015834e0,2.417692695e1,3.949177414e1
1.616723917e0,2.459054027e1,5.772046187e0,2.583372849e1,3.613021887e1
1.626694917e0,1.756122344e1,3.231487996e0,2.561827028e1,3.122714933e1
1.636664917e0,1.227966976e1,2.120506497e0,2.440415910e1,2.740163898e1
1.646635917e0,1.098266962e1,6.910710159e-1,2.249027654e1,2.503815389e1
1.656606917e0,1.287260784e1,-5.582825026e-1,2.016264500e1,2.392797453e1
1.666576917e0,1.560920650e1,-1.694833291e0,1.712895632e1,2.323619875e1
1.676547917e0,1.661047319e1,-2.152443989e0,1.291321675e1,2.114927898e1
1.686518917e0,1.599972917e1,-2.023116735e0,9.327639207e0,1.863032979e1
1.696488917e0,1.459942160e1,-1.903610757e0,6.679426467e0,1.616729980e1
1.706459917e0,1.235914044e1,-1.975777677e0,4.073967399e0,1.316241848e1
1.716430917e0,8.818513954e0,-2.329246249e0,2.212850697e0,9.385535928e0
1.726400917e0,4.638002100e0,-3.197349320e0,1.530026886e0,5.837387123e0
1.736371917e0,4.691191882e-1,-4.210099935e0,1.436414133e0,4.473063809e0
1.746342917e0,-2.699748344e0,-4.840406978e0,1.446955494e0,5.728163845e0
1.756312917e0,-4.156194161e0,-5.291831322e0,9.480570209e-1,6.795310204e0
1.766283917e0,-4.291394359e0,-5.469236430e0,-5.453282887e-1,6.973234229e0
1.776254917e0,-4.206648908e0,-5.122063848e0,-3.020586821e0,7.283912262e0
1.786225917e0,-4.236810601e0,-4.813841323e0,-5.760571026e0,8.620197846e0
1.796195917e0,-4.241841837e0,-4.531851747e0,-8.126486626e0,1.022598100e1
1.806166917e0,-4.371083137e0,-4.337106721e0,-1.031413056e1,1.201241657e1
1.816137917e0,-4.343945040e0,-4.561919884e0,-1.164222970e1,1.323716299e1
1.826107917e0,-3.580805922e0,-5.046961040e0,-1.232343033e1,1.378988476e1
1.836078917e0,-2.198942802e0,-5.397247850e0,-1.272364417e1,1.399488316e1
1.846049917e0,-7.896483475e-1,-5.835785515e0,-1.219892907e1,1.354598862e1
1.856019917e0,4.226118967e-1,-6.040281358e0,-1.123908056e1,1.276638286e1
1.865990917e0,1.114105959e0,-6.074983998e0,-1.048687135e1,1.217050259e1
1.875961917e0,1.034818007e0,-6.030380852e0,-9.654512011e0,1.143004566e1
1.885931917e0,8.367219418e-2,-6.005069425e0,-8.552758588e0,1.045071956e1
1.895902917e0,-1.264524412e0,-6.054567860e0,-7.657287916e0,9.843316117e0
1.905873917e0,-2.871062700e0,-6.107460018e0,-6.966773847e0,9.699484870e0
1.915843917e0,-4.324759156e0,-6.188486640e0,-6.279442418e0,9.819995200e0
1.925814917e0,-5.298341612e0,-6.145423066e0,-6.003888872e0,1.009382634e1
1.935785917e0,-5.852027911e0,-6.124775378e0,-6.111389932e0,1.044548663e1
1.945755917e0,-6.279426631e0,-5.889605042e0,-6.562424267e0,1.082515860e1
1.955726917e0,-6.025458081e0,-5.764903228e0,-7.137001498e0,1.097620357e1
1.965697917e0,-5.348102002e0,-5.851011080e0,-7.495482010e0,1.090957269e1
1.975667917e0,-4.841489298e0,-5.633960681e0,-7.615129491e0,1.063822019e1
1.985638917e0,-4.808948373e0,-5.191525261e0,-7.825468456e0,1.055063389e1
1.995609917e0,-5.116183888e0,-4.950977241e0,-8.041597334e0,1.074033523e1
2.005579917e0,-5.828703368e0,-4.994081161e0,-8.012780501e0,1.109591280e1
2.015550917e0,-6.762768002e0,-5.248919776e0,-7.452651740e0,1.135025144e1
2.025521917e0,-7.233871150e0,-5.555979289e0,-6.562078696e0,1.123648853e1
2.035491917e0,-6.929697822e0,-5.914178551e0,-5.870260699e0,1.083781253e1
2.045462917e0,-6.326849889e0,-6.375277113e0,-5.652957115e0,1.061268637e1
2.055433917e0,-6.044521759e0,-6.716823505e0,-5.480371867e0,1.056818041e1
2.065403917e0,-6.032729679e0,-6.968503454e0,-4.925241306e0,1.045044830e1
2.075374917e0,-6.426656013e0,-6.846152220e0,-4.688879893e0,1.049558490e1
2.085345917e0,-6.651296098e0,-6.759784167e0,-5.521830381e0,1.097383399e1
2.095315917e0,-6.679109548e0,-6.416418707e0,-6.717791219e0,1.144157560e1
2.105286917e0,-6.554199573e0,-6.061053591e0,-8.014722946e0,1.199706992e1
2.115257917e0,-6.264764737e0,-5.786956002e0,-8.793801867e0,1.225018727e1
2.125228917e0,-5.916868270e0,-5.462198721e0,-8.712277647e0,1.186375686e1
2.135198917e0,-5.879440827e0,-5.135425905e0,-8.291179302e0,1.138789172e1
2.145169917e0,-6.053660372e0,-4.880463914e0,-7.944213712e0,1.111648611e1
2.155140917e0,-6.170435116e0,-4.624941174e0,-7.332002631e0,1.064061149e1
2.165110917e0,-6.123500685e0,-4.215740159e0,-6.736166679e0,1.003223142e1
2.175081917e0,-5.723927110e0,-3.743495927e0,-6.574885853e0,9.487161182e0
2.185052917e0,-5.683736858e0,-2.571277123e0,-5.684544359e0,8.439808960e0
2.195022917e0,-5.608203696e0,-6.949561983e-1,-3.593007599e0,6.696612309e0
2.204993917e0,-5.072733813e0,1.569976818e0,-1.076421531e0,5.418130569e0
2.214964917e0,-3.352943144e0,3.386704967e0,1.714415324e0,5.064703166e0
2.224934917e0,-1.473217678e-1,4.626064132e0,5.362317753e0,7.083546057e0
2.234905917e0,2.650127118e0,5.426710215e0,9.796290618e0,1.150824345e1
2.244876917e0,4.643064619e0,5.474308305e0,1.353963364e1,1.532474403e1
2.254846917e0,6.193533372e0,6.181555935e0,1.583830392e1,1.809484348e1
2.264817917e0,8.136342693e0,7.841521987e0,1.676176404e1,2.021500120e1
2.274788917e0,1.203002874e1,9.513270763e0,1.741860517e1,2.320844066e1
2.284758917e0,1.786971084e1,1.074792146e1,1.876355482e1,2.805201188e1
2.294729917e0,2.360576157e1,1.167932912e1,2.180810762e1,3.419403845e1
2.304700917e0,2.719729918e1,1.207919798e1,2.469194268e1,3.866900748e1
2.314671917e0,2.740813340e1,1.138750043e1,2.672785196e1,3.994069369e1
2.324641917e0,2.409308255e1,1.032841414e1,2.846949426e1,3.869967531e1
2.334612917e0,1.938409759e1,9.097012743e0,2.812156154e1,3.534573671e1
2.344583917e0,1.552738875e1,7.977476767e0,2.511798017e1,3.058844332e1
2.354553917e0,1.374882012e1,7.339070746e0,2.029401323e1,2.558786796e1
2.364524917e0,1.364446369e1,6.798941216e0,1.464679106e1,2.114061209e1
2.374495917e0,1.339452563e1,6.780407297e0,8.890375065e0,1.744780813e1
2.384465917e0,1.201777297e1,7.079085411e0,3.633598970e0,1.441330493e1
2.394436917e0,9.884911019e0,6.925288437e0,2.757622916e-1,1.207257763e1
2.404407917e0,7.306349727e0,6.150517745e0,-6.225787783e-1,9.570748100e0
2.414377917e0,4.623424114e0,4.868527700e0,2.385301459e-1,6.718296595e0
2.424348917e0,2.042724203e0,3.330315296e0,1.769481477e0,4.288914413e0
2.434319917e0,-5.004257655e-1,2.324843588e0,2.993338796e0,3.823009391e0
2.444289917e0,-2.496775994e0,1.976807372e0,3.701052450e0,4.882565615e0
2.454260917e0,-3.160621497e0,1.724485399e0,1.321378351e0,3.835286024e0
2.464231917e0,-3.555910816e0,1.216864049e0,-2.248120517e0,4.379418421e0
2.474198458e0,-4.061619834e0,6.376853523e-1,-4.850687553e0,6.358660867e0
2.484168458e0,-4.202597080e0,-2.846594149e-1,-6.301306912e0,7.579533099e0
2.494139458e0,-4.019106483e0,-1.225743923e0,-6.878494924e0,8.060357158e0
2.504110458e0,-3.539226079e0,-2.142125115e0,-7.190425168e0,8.295603375e0
2.514080458e0,-2.914183869e0,-3.143853144e0,-7.470086383e0,8.612692424e0
2.524051458e0,-2.451343421e0,-4.173712420e0,-7.533970138e0,8.954868283e0
2.534022458e0,-2.477648290e0,-4.690729367e0,-7.366223461e0,9.077606024e0
2.543992458e0,-3.019529060e0,-4.928274842e0,-7.086890860e0,9.144915020e0
2.553963458e0,-3.867947187e0,-5.380303788e0,-6.661241627e0,9.395787583e0
2.563934458e0,-4.939621364e0,-5.737125446e0,-5.875746557e0,9.583259633e0
2.573904458e0,-5.826465054e0,-5.908715497e0,-5.361282796e0,9.879472003e0
2.583875458e0,-6.371385207e0,-5.914965586e0,-5.631580279e0,1.035838133e1
2.593846458e0,-6.434743881e0,-6.000335519e0,-6.467291238e0,1.091951515e1
2.603816458e0,-6.310902193e0,-6.449116337e0,-7.202409037e0,1.154527106e1
2.613787458e0,-6.436402152e0,-6.731926863e0,-7.452825403e0,1.192856732e1
2.623758458e0,-6.828452114e0,-6.890013354e0,-6.618538241e0,1.174329982e1
2.633729458e0,-7.244394969e0,-6.781520022e0,-5.331065555e0,1.126456978e1
2.643699458e0,-7.563494484e0,-6.767415953e0,-4.508041008e0,1.110526007e1
2.653670458e0,-7.736088502e0,-6.918735462e0,-3.749555396e0,1.103517700e1
2.663641458e0,-8.192788205e0,-6.938196750e0,-3.205180496e0,1.120417488e1
2.673611458e0,-8.726798623e0,-6.741118101e0,-3.157131878e0,1.147027328e1
2.683582458e0,-9.027081798e0,-6.795697181e0,-3.163668481e0,1.173364838e1
2.693553458e0,-9.235720977e0,-7.058216114e0,-3.086600717e0,1.202680592e1
2.703523458e0,-9.544273285e0,-7.497927316e0,-2.713565900e0,1.243686080e1
2.713494458e0,-1.009890625e1,-7.890607608e0,-1.565655726e0,1.291126925e1
2.723465458e0,-1.082424984e1,-8.001763762e0,-1.225740123e-1,1.346133843e1
2.733435458e0,-1.149177967e1,-8.011236836e0,1.111940881e0,1.405266267e1
2.743406458e0,-1.158430017e1,-8.130115993e0,1.849019397e0,1.427282975e1
2.753377458e0,-1.095086779e1,-8.291713738e0,2.128430790e0,1.389979279e1
2.763348458e0,-1.025435331e1,-8.118474187e0,1.659561570e0,1.318391177e1
2.773318458e0,-9.823827496e0,-7.803781133e0,6.538122654e-1,1.256320250e1
2.783289458e0,-9.565416816e0,-7.540054750e0,-7.674061239e-2,1.218012782e1
2.793260458e0,-9.711428808e0,-7.564106687e0,-4.983054189e-1,1.231973489e1
2.803230458e0,-1.035833551e1,-7.511705695e0,1.432088363e-1,1.279614574e1
2.813201458e0,-1.103842750e1,-6.918153080e0,1.216085931e0,1.308382929e1
2.823172458e0,-1.154133366e1,-6.246941255e0,1.445750821e0,1.320291078e1
2.833142458e0,-1.080600068e1,-6.069834355e0,1.075622216e0,1.244063917e1
2.843113458e0,-9.369975972e0,-5.545639658e0,5.683586439e-1,1.090291706e1
2.853084458e0,-8.439479309e0,-4.467345849e0,-7.129410642e-1,9.575503898e0
2.863054458e0,-7.344470649e0,-3.357354868e0,-1.900777781e0,8.296145913e0
2.873025458e0,-6.072666746e0,-1.803274875e0,-2.520002012e0,6.817586950e0
2.882996458e0,-4.597933470e0,5.358166230e-1,-2.279030653e0,5.159658164e0
2.892967458e0,-1.366177379e0,2.874027531e0,-1.524846107e0,3.528686799e0
2.902937458e0,3.128947422e0,6.062383248e0,7.915317357e-2,6.822687729e0
2.912908458e0,7.225228965e0,9.775446464e0,3.159790315e0,1.255975963e1
2.922879458e0,1.013916433e1,1.231856778e1,5.966072005e0,1.703360739e1
2.932849458e0,1.034854376e1,1.389513617e1,4.428588164e0,1.788238128e1
2.942820458e0,1.097756968e1,1.747848533e1,2.074723091e0,2.074388974e1
2.952791458e0,1.860808320e1,2.160646756e1,3.544610195e0,2.873437770e1
2.962761458e0,3.330181103e1,2.583426877e1,7.498797966e0,4.280948530e1
2.972732458e0,4.898315463e1,2.869081839e1,1.047593354e1,5.772571074e1
2.982703458e0,5.915691226e1,2.821285996e1,1.145064802e1,6.653287214e1
2.992674458e0,6.032777743e1,2.410311637e1,1.107566959e1,6.590198332e1
3.002644458e0,4.971464131e1,2.166449065e1,1.092698659e1,5.531993087e1
3.012615458e0,3.723907579e1,1.822358901e1,1.193443963e1,4.314254062e1
3.022586458e0,2.820607485e1,1.346016296e1,1.101780437e1,3.313835631e1
3.032556458e0,2.138801558e1,1.013650969e1,9.353116695e0,2.544949569e1
3.042527458e0,1.704151355e1,6.767811225e0,6.154712538e0,1.934158575e1
3.052498458e0,1.248168990e1,4.431085510e0,1.982846961e0,1.339248982e1
3.062469458e0,7.715843688e0,3.421225759e0,-1.787977974e0,8.627623934e0
3.072439458e0,4.139027029e0,1.717514348e0,-4.294113022e0,6.206513266e0
3.082410458e0,1.181290174e0,-1.783430010e-1,-5.191300728e0,5.326993144e0
3.092381458e0,-1.677795382e0,-1.898656996e0,-4.640464363e0,5.287135825e0
3.102351458e0,-4.298113394e0,-3.589430273e0,-3.347563121e0,6.524106627e0
3.112322458e0,-6.517589571e0,-5.469516512e0,-2.914398462e0,8.993792475e0
3.122293458e0,-8.375367513e0,-7.310647430e0,-3.010913773e0,1.151772324e1
3.132263458e0,-9.810982332e0,-8.820741159e0,-3.926874257e0,1.376521668e1
3.142234458e0,-1.035294906e1,-1.023967212e1,-4.341905239e0,1.519495246e1
3.152205458e0,-9.548726524e0,-1.105353437e1,-4.049086035e0,1.515763497e1
3.162176458e0,-8.498943154e0,-1.182211111e1,-3.455622297e0,1.496448032e1
3.172146458e0,-7.863658376e0,-1.173884325e1,-2.715950979e0,1.438797948e1
3.182117458e0,-7.467318896e0,-1.116044603e1,-2.175889277e0,1.360334155e1
3.192088458e0,-7.194645689e0,-1.075844411e1,-1.846400430e0,1.307349382e1
3.202058458e0,-7.288851934e0,-1.016963885e1,-1.966407076e0,1.266553092e1
3.212029458e0,-7.815945681e0,-9.678989040e0,-2.123226330e0,1.262061511e1
3.222000458e0,-8.504246578e0,-9.298821205e0,-2.332206402e0,1.281520473e1
3.231970458e0,-9.352421461e0,-8.776152631e0,-2.451648645e0,1.305753511e1
3.241941458e0,-1.026040868e1,-8.720625717e0,-2.296106862e0,1.366006610e1
3.251912458e0,-1.099719762e1,-8.672195569e0,-2.038987248e0,1.415283719e1
3.261883458e0,-1.158154964e1,-8.372379586e0,-1.764445270e0,1.439938537e1
3.271853458e0,-1.216970586e1,-8.116131792e0,-1.341677545e0,1.468922852e1
3.281824458e0,-1.276613940e1,-7.901377010e0,-6.473850060e-1,1.502748086e1
3.291795458e0,-1.270385953e1,-7.399360802e0,2.271327531e-1,1.470340697e1
3.301765458e0,-1.206098507e1,-6.999024165e0,7.919281769e-1,1.396713465e1
3.311736458e0,-1.143392615e1,-6.999659173e0,1.103297088e0,1.345166013e1
3.321707458e0,-1.080835243e1,-7.151922423e0,1.322358345e0,1.302762865e1
3.331677458e0,-1.045587876e1,-7.249700732e0,1.663374978e0,1.283161633e1
3.341648458e0,-1.037235597e1,-7.428464733e0,2.086895825e0,1.292760576e1
3.351619458e0,-1.047719186e1,-7.706916744e0,2.188170769e0,1.318924586e1
3.361590458e0,-1.071834624e1,-7.966398048e0,2.125849975e0,1.352278381e1
3.371560458e0,-1.078314742e1,-8.224750255e0,2.138946569e0,1.372945292e1
3.381531458e0,-1.090168218e1,-8.285643159e0,1.463728817e0,1.377102244e1
3.391502458e0,-1.135140323e1,-8.688050879e0,9.156926823e-1,1.432393369e1
3.401472458e0,-1.142106696e1,-9.091597052e0,1.149794147e0,1.464308485e1
3.411443458e0,-1.126255596e1,-8.680488090e0,1.133469817e0,1.426466943e1
3.421414458e0,-1.153360481e1,-8.354361976e0,1.197713249e0,1.429174310e1
3.431384458e0,-1.190811429e1,-8.636141052e0,1.153252263e0,1.475520617e1
3.441355458e0,-1.224253410e1,-8.806241233e0,1.415435639e0,1.514704538e1
3.451326458e0,-1.143111715e1,-8.692369047e0,2.061028912e0,1.450777582e1
3.461297458e0,-9.571627729e0,-8.526495818e0,2.607572837e0,1.308115532e1
3.471267458e0,-8.320986069e0,-7.922076153e0,2.645441744e0,1.178967607e1
3.481238792e0,-7.719366050e0,-6.974292782e0,1.971574699e0,1.058850692e1
3.491209792e0,-6.740284288e0,-5.970738083e0,8.722993255e-1,9.046659696e0
3.501179792e0,-5.238811110e0,-4.761247373e0,1.796452125e-1,7.081446942e0
3.511150792e0,-3.363829490e0,-2.975079111e0,-4.022412937e-2,4.490886609e0
3.521121792e0,-2.050775235e0,-1.120729977e0,-6.715971565e-1,2.431616229e0
3.531092792e0,-1.806567442e0,1.534699981e0,-1.984423370e0,3.091427837e0
3.541062792e0,-1.129517173e0,5.447963675e0,-3.538911499e0,6.593937507e0
3.551033792e0,1.483574266e0,1.040333568e1,-4.700872532e0,1.151210617e1
3.561004792e0,6.816979292e0,1.489340791e1,-4.982577349e0,1.712048138e1
3.570974792e0,1.375006090e1,1.715745916e1,-4.910515094e0,2.252899772e1
3.580945792e0,1.891373353e1,1.905193598e1,-5.372138736e0,2.737819306e1
3.590916792e0,2.332710900e1,2.115395855e1,-5.513723216e0,3.196944041e1
3.600887792e0,3.016042716e1,2.344443221e1,-2.852612103e0,3.830705110e1
3.610857792e0,3.871048551e1,2.556896656e1,8.870974588e-1,4.640108491e1
3.620828792e0,4.536671724e1,2.756985335e1,3.349845289e0,5.319264338e1
3.630799792e0,4.799399285e1,2.867467305e1,4.582430162e0,5.609508794e1
3.640769792e0,4.670971041e1,2.705709230e1,4.362363769e0,5.415638012e1
3.650740792e0,4.172780783e1,2.248314762e1,3.733084082e0,4.754616482e1
3.660711792e0,3.339222769e1,1.737042645e1,3.718791148e0,3.782329960e1
3.670682792e0,2.450133047e1,1.283296138e1,3.184647413e0,2.784137338e1
3.680652792e0,1.675047424e1,8.666117973e0,1.497343875e0,1.891882731e1
3.690623792e0,9.933018401e0,6.574198805e0,-8.310746279e-1,1.194050374e1
3.700594792e0,5.761463896e0,5.273150053e0,-2.607468172e0,8.234043234e0
3.710564792e0,3.831668723e0,3.651248791e0,-3.628220701e0,6.416953201e0
3.720535792e0,2.630890948e0,2.477263543e0,-3.883341737e0,5.304598466e0
3.730506792e0,1.549753053e0,9.169545114e-1,-3.263319946e0,3.727170129e0
3.740477792e0,-3.016110778e-2,-1.411319638e0,-2.113053198e0,2.541205743e0
3.750447792e0,-1.559607950e0,-4.812209365e0,-3.475432956e-1,5.070554435e0
3.760418792e0,-4.462900211e0,-7.534677651e0,2.134130510e0,9.013509784e0
3.770389792e0,-6.698350981e0,-9.281555547e0,4.598416450e0,1.233534001e1
3.780359792e0,-7.874431871e0,-1.123854729e1,5.681217878e0,1.485220048e1
3.790330792e0,-8.791001050e0,-1.194517395e1,5.553866690e0,1.583711828e1
3.800301792e0,-9.280094912e0,-1.154784161e1,3.605083561e0,1.524694838e1
3.810271792e0,-8.534177306e0,-1.023885117e1,1.549167747e0,1.341887388e1
3.820242792e0,-6.450969905e0,-8.332349548e0,-1.533572638e-1,1.053881303e1
3.830213792e0,-5.099844428e0,-8.832701638e0,-3.921397755e0,1.092714015e1
3.840184792e0,-4.403825206e0,-8.272052475e0,-7.389195417e0,1.193401598e1
3.850154792e0,-4.455960735e0,-6.794354076e0,-9.335891967e0,1.237649838e1
3.860125792e0,-5.205296624e0,-5.976380646e0,-9.916073170e0,1.269412249e1
3.870096792e0,-6.872341899e0,-5.733056953e0,-9.569796381e0,1.310259623e1
3.880067792e0,-8.315187385e0,-5.554113443e0,-8.379810812e0,1.304652240e1
3.890037792e0,-9.544001389e0,-5.642187713e0,-6.808211392e0,1.301053370e1
3.900008792e0,-1.069913931e1,-5.969463975e0,-4.924640797e0,1.320447534e1
3.909979792e0,-1.135379123e1,-6.132602461e0,-3.185970054e0,1.329164375e1
3.919949792e0,-1.163126033e1,-5.828757747e0,-2.307720602e0,1.321310743e1
3.929920792e0,-1.150794021e1,-6.045699388e0,-1.370539402e0,1.307140188e1
3.939891792e0,-1.116424321e1,-6.290170305e0,-1.692873816e-1,1.281542926e1
3.949862792e0,-1.102841473e1,-6.231026303e0,9.274561107e-1,1.270085805e1
3.959832792e0,-1.131481603e1,-6.154727740e0,2.033200843e0,1.303992489e1
3.969803792e0,-1.133457728e1,-6.063033459e0,3.050141573e0,1.321122176e1
3.979774792e0,-1.140066485e1,-6.191020238e0,3.757144790e0,1.350629585e1
3.989744792e0,-1.140048008e1,-6.369823415e0,3.938064659e0,1.364015944e1
3.999715792e0,-1.138531123e1,-6.357025614e0,3.976065713e0,1.363254140e1
4.009686792e0,-1.149329995e1,-6.249345045e0,4.133476267e0,1.371990828e1
4.019657792e0,-1.155715388e1,-6.167861756e0,4.147078937e0,1.374076374e1
4.029627792e0,-1.177328452e1,-6.230354458e0,4.188107972e0,1.396308681e1
4.039598792e0,-1.209451534e1,-6.298189176e0,4.540709109e0,1.437228331e1
4.049569792e0,-1.206920976e1,-6.228621343e0,5.045339023e0,1.448851248e1
4.059539792e0,-1.183025277e1,-6.161446191e0,5.210988303e0,1.432035959e1
4.069510792e0,-1.177644903e1,-6.153139637e0,5.087852958e0,1.422786445e1
4.079481792e0,-1.170477854e1,-6.332030522e0,4.822042043e0,1.415445303e1
4.089451792e0,-1.157030076e1,-6.420978951e0,4.665999738e0,1.403112198e1
4.099422792e0,-1.113265188e1,-6.271073298e0,4.445316464e0,1.352860438e1
4.109393792e0,-1.061127203e1,-5.863559205e0,3.886006898e0,1.273112211e1
4.119364792e0,-9.960942364e0,-5.549542090e0,2.963331470e0,1.178130398e1
4.129334792e0,-8.971743749e0,-5.425223853e0,2.412002331e0,1.075839184e1
4.139305792e0,-7.886587062e0,-5.025149757e0,2.043358773e0,9.572131458e0
4.149276792e0,-6.536498882e0,-4.201805367e0,1.437281860e0,7.902326564e0
4.159247792e0,-5.320646401e0,-3.021188500e0,4.958823328e-1,6.138628297e0
4.169217792e0,-4.648438210e0,-1.415801236e0,-5.795795238e-1,4.893708549e0
4.179188792e0,-4.282981385e0,6.322822326e-1,-1.596757650e0,4.614471298e0
4.189159792e0,-3.358317320e0,3.419194436e0,-2.319553027e0,5.324425984e0
4.199129792e0,-1.636520471e0,6.562742355e0,-2.479695400e0,7.203934741e0
4.209100792e0,2.054970027e0,9.446555201e0,-3.788884280e-1,9.674908962e0
4.219071792e0,7.957714348e0,1.207273563e1,4.778162783e0,1.522849313e1
4.229042792e0,1.376086772e1,1.442153760e1,1.068246539e1,2.261542160e1
4.239012792e0,1.659816948e1,1.814735184e1,1.282201773e1,2.773499139e1
4.248983792e0,1.960032997e1,2.327323977e1,1.011339448e1,3.206395752e1
4.258954792e0,2.695123665e1,2.744080530e1,6.371203358e0,3.898665393e1
4.268924792e0,3.803781012e1,3.067943772e1,3.406322376e0,4.898679342e1
4.278895792e0,5.042417520e1,2.987501521e1,1.461598091e0,5.862806706e1
4.288866792e0,5.933773155e1,2.503546894e1,6.084561445e-2,6.440298746e1
4.298837792e0,5.922868332e1,1.919962613e1,-8.337509716e-1,6.226843271e1
4.308807792e0,4.868900694e1,1.485779368e1,-1.552887161e0,5.092921449e1
4.318778792e0,3.565391433e1,1.051059935e1,-1.363618199e0,3.719588365e1
4.328749792e0,2.483860255e1,5.140570870e0,-1.449079349e0,2.540632749e1
4.338720792e0,1.586537770e1,1.698057738e0,-2.794678183e-1,1.595843701e1
4.348690792e0,8.949580463e0,7.622050256e-1,2.756809860e0,9.395528062e0
4.358661792e0,5.187342748e0,-8.073776901e-2,5.333778663e0,7.440714898e0
4.368632792e0,3.214174683e0,-1.245165743e0,5.709696157e0,6.669481751e0
4.378602792e0,1.398887873e0,-1.958704392e0,4.772133719e0,5.344779734e0
4.388573792e0,-3.226785958e-1,-2.535281956e0,3.344278740e0,4.209035086e0
4.398544792e0,-2.075372132e0,-3.479590911e0,1.653967978e0,4.376109284e0
4.408515792e0,-4.079264976e0,-4.377470051e0,-1.075367132e0,6.079396456e0
4.418485792e0,-5.952490677e0,-5.940181704e0,-2.903402188e0,8.896496400e0
4.428456792e0,-7.181971264e0,-7.173841880e0,-5.322166677e0,1.146168298e1
4.438427792e0,-7.629358690e0,-7.648838689e0,-6.769898681e0,1.274925000e1
4.448398792e0,-7.230563380e0,-7.690107753e0,-6.317752790e0,1.230173989e1
4.458368792e0,-6.818408352e0,-7.704591891e0,-5.190761615e0,1.152369016e1
4.468339792e0,-7.063980299e0,-7.983477180e0,-3.965300404e0,1.137362444e1
4.478310917e0,-7.951015778e0,-8.274152795e0,-2.998997732e0,1.186061734e1
4.488280917e0,-8.952411100e0,-7.798519809e0,-2.291239640e0,1.209183008e1
4.498251917e0,-9.991041491e0,-7.516425567e0,-2.062443938e0,1.267167070e1
4.508222917e0,-1.063023806e1,-7.429026065e0,-2.404770348e0,1.318997005e1
4.518193917e0,-1.093735019e1,-7.396902047e0,-2.738607770e0,1.348479743e1
4.528163917e0,-1.151152338e1,-7.458600698e0,-3.033990979e0,1.404816701e1
4.538134917e0,-1.204213014e1,-7.339367200e0,-2.848982152e0,1.438735238e1
4.548105917e0,-1.224427423e1,-6.615098909e0,-2.417630714e0,1.412539285e1
4.558075917e0,-1.224379827e1,-5.953718008e0,-2.162633640e0,1.378529428e1
4.568046917e0,-1.211371643e1,-5.978142997e0,-1.463534689e0,1.358757716e1
4.578017917e0,-1.200912143e1,-5.913549390e0,-6.564224625e-1,1.340223692e1
4.587988917e0,-1.185974496e1,-5.507427519e0,3.608246613e-1,1.308111244e1
4.597958917e0,-1.187794383e1,-5.242798326e0,1.350910299e0,1.305363714e1
4.607929917e0,-1.199373507e1,-5.142479986e0,2.103816497e0,1.321820053e1
4.617900917e0,-1.191461406e1,-5.027423739e0,2.807900784e0,1.323319026e1
4.627871917e0,-1.199255744e1,-5.000251728e0,2.846023461e0,1.330127065e1
4.637841917e0,-1.201895294e1,-4.790741313e0,2.781688886e0,1.323420663e1
4.647812917e0,-1.207804140e1,-4.461972257e0,2.630900888e0,1.314191462e1
4.657783917e0,-1.228457207e1,-4.199742469e0,2.228560996e0,1.317251046e1
4.667753917e0,-1.269470279e1,-4.002936300e0,2.020888946e0,1.346339371e1
4.677724917e0,-1.324783536e1,-3.604510826e0,2.205891341e0,1.390552396e1
4.687695917e0,-1.344250554e1,-3.343760676e0,2.507033472e0,1.407717683e1
4.697666917e0,-1.316858688e1,-3.401277690e0,2.459231315e0,1.382129476e1
4.707636917e0,-1.269433208e1,-3.520340157e0,2.561092150e0,1.342006165e1
4.717607917e0,-1.239516865e1,-3.769759865e0,2.767840632e0,1.324810315e1
4.727578917e0,-1.247202445e1,-3.742944826e0,3.300657341e0,1.343336773e1
4.737549917e0,-1.223818845e1,-3.707999527e0,4.196368918e0,1.345852997e1
4.747519917e0,-1.174653234e1,-3.526939325e0,4.379354316e0,1.302302066e1
4.757490917e0,-1.111866300e1,-3.350300495e0,4.002212123e0,1.228278804e1
4.767461917e0,-1.010044290e1,-3.542640853e0,3.714841354e0,1.133001753e1
4.777431917e0,-9.115653082e0,-3.553156778e0,3.534895631e0,1.040266991e1
4.787402917e0,-8.701182556e0,-2.779116988e0,3.381212093e0,9.739951967e0
4.797373917e0,-8.265207725e0,-1.561232892e0,2.515283893e0,8.779394053e0
4.807344917e0,-7.363624958e0,-2.432593739e-1,9.438739228e-1,7.427856059e0
4.817314917e0,-6.044874346e0,1.725032406e0,-1.236714177e0,6.406692174e0
4.827285917e0,-3.654310977e0,3.645333163e0,-2.698373079e0,5.824402103e0
4.837256917e0,-5.123950160e-1,6.300167874e0,-3.398870684e0,7.176836756e0
4.847227917e0,2.658431919e0,1.030645668e1,-3.720519000e0,1.127530803e1
4.857197917e0,8.198619633e0,1.323852893e1,-2.303599484e0,1.574111123e1
4.867168917e0,1.581443676e1,1.451510241e1,6.663779318e-1,2.147623494e1
4.877139917e0,2.230486601e1,1.463462300e1,3.932369471e0,2.696558488e1
4.887110917e0,2.413975035e1,1.447130559e1,3.585947086e0,2.837261442e1
4.897080917e0,2.218443676e1,1.590462772e1,1.161314770e-1,2.729688450e1
4.907051917e0,2.130169664e1,1.759291184e1,-1.020245210e0,2.764622446e1
4.917022917e0,2.464601865e1,1.838142173e1,9.004277949e-1,3.075896082e1
4.926993917e0,3.068209703e1,1.692246658e1,4.520340334e0,3.532979522e1
4.936963917e0,3.509793534e1,1.411292156e1,8.085118160e0,3.868344292e1
4.946934917e0,3.592619812e1,1.112743148e1,1.040445367e1,3.902261010e1
4.956905917e0,3.225648791e1,8.749878752e0,1.086482952e1,3.514378908e1
4.966875917e0,2.627656152e1,7.169364667e0,9.929906512e0,2.899069710e1
4.976846917e0,2.109406435e1,5.861854742e0,8.487105466e0,2.348088268e1
4.986817917e0,1.832525338e1,4.960266128e0,7.375800616e0,2.036716932e1
4.996788917e0,1.819484293e1,4.592140049e0,7.171694198e0,2.008913281e1
5.006758917e0,1.938921975e1,4.531895016e0,7.320742064e0,2.121492822e1
5.016729917e0,2.039936602e1,4.141636056e0,7.471659869e0,2.211589891e1
5.026700917e0,2.074222336e1,3.268464326e0,7.075561295e0,2.215820968e1
5.036671917e0,1.967388326e1,2.298621165e0,5.615633168e0,2.058836268e1
5.046641917e0,1.673749342e1,1.066436241e0,3.937160094e0,1.722736782e1
5.056612917e0,1.246735135e1,-1.503079408e-1,2.314647798e0,1.268128687e1
5.066583917e0,7.852631112e0,-1.398794902e0,1.075385916e0,8.048409621e0
5.076554917e0,3.608411504e0,-2.930487660e0,2.607524890e-1,4.655790306e0
5.086524917e0,-1.486356372e-1,-4.427483041e0,-1.528450477e-1,4.432613251e0
5.096495917e0,-3.127334175e0,-5.651608163e0,-1.148872626e-1,6.460192950e0
5.106466917e0,-5.339003150e0,-7.057105728e0,-1.266638473e-2,8.849172635e0
5.116436917e0,-7.277309530e0,-8.468138852e0,3.268441522e-1,1.117029260e1
5.126407917e0,-8.937199568e0,-9.092286438e0,7.704104233e-1,1.277249940e1
5.136378917e0,-1.008428938e1,-9.338115664e0,6.483363479e-1,1.375912920e1
5.146349917e0,-1.096533146e1,-9.093937692e0,-7.710148792e-1,1.426648733e1
5.156319917e0,-1.073640010e1,-8.855201724e0,-3.343197005e0,1.431299588e1
5.166290917e0,-9.841263893e0,-9.402659569e0,-5.513185272e0,1.468522025e1
5.176261917e0,-8.632704059e0,-9.412620885e0,-6.498161613e0,1.432993774e1
5.186232917e0,-7.396166468e0,-9.255523158e0,-6.026069115e0,1.329215920e1
5.196202917e0,-6.661352139e0,-9.387553287e0,-5.201942076e0,1.263170497e1
5.206173917e0,-6.316036633e0,-8.953057802e0,-4.593963211e0,1.188082744e1
5.216144917e0,-6.242011467e0,-8.646358477e0,-4.412580242e0,1.154093092e1
5.226115917e0,-6.368927622e0,-8.861907311e0,-4.513415476e0,1.180963842e1
5.236085917e0,-6.723501610e0,-8.907879875e0,-4.232675450e0,1.193613586e1
5.246056917e0,-7.314652773e0,-8.396078936e0,-3.698789577e0,1.173368361e1
5.256027917e0,-8.138160592e0,-7.914668316e0,-2.986530883e0,1.173844108e1
5.265997917e0,-9.079385726e0,-7.712866870e0,-2.031449018e0,1.208512911e1
5.275968917e0,-9.809188991e0,-7.515683556e0,-1.285696303e0,1.242411779e1
5.285939917e0,-1.019800018e1,-7.158084803e0,-1.033038041e0,1.250218194e1
5.295910917e0,-1.031000009e1,-6.945698143e0,-7.245321460e-1,1.245246045e1
5.305880917e0,-1.043625551e1,-6.816449534e0,-1.919127806e-1,1.246660514e1
5.315851917e0,-1.052749780e1,-6.460827141e0,3.825342035e-1,1.235786509e1
5.325822917e0,-1.036623861e1,-6.224948707e0,8.409408541e-1,1.212089398e1
5.335793917e0,-1.028267956e1,-6.242195655e0,1.419863005e0,1.211257679e1
5.345763917e0,-1.035969674e1,-6.278292271e0,1.965822208e0,1.227211177e1
5.355734917e0,-1.057712897e1,-6.160638691e0,2.652180953e0,1.252450358e1
5.365705917e0,-1.077759491e1,-5.990217497e0,3.499498926e0,1.281740030e1
5.375676917e0,-1.099244734e1,-5.713447146e0,4.007495667e0,1.302065276e1
5.385646917e0,-1.105667315e1,-5.569588684e0,4.113305712e0,1.304567450e1
5.395617917e0,-1.106716306e1,-5.613384914e0,3.968757863e0,1.302855431e1
5.405588917e0,-1.105719356e1,-5.632733935e0,3.672902784e0,1.294138462e1
5.415559917e0,-1.121627291e1,-5.722050739e0,3.315805138e0,1.302079899e1
5.425529917e0,-1.141108225e1,-5.797065838e0,3.166507012e0,1.318504976e1
5.435500917e0,-1.152467494e1,-5.757267934e0,3.275179853e0,1.329251931e1
5.445471917e0,-1.153808378e1,-5.784601913e0,3.454181836e0,1.336115147e1
5.455442917e0,-1.127888138e1,-5.845147492e0,3.676093025e0,1.322469563e1
5.465412917e0,-1.061880324e1,-5.749699298e0,3.661869088e0,1.261853040e1
5.475383917e0,-9.707607068e0,-5.515067491e0,3.249898832e0,1.162821770e1
5.485355083e0,-8.685162354e0,-5.154818780e0,2.474196678e0,1.039835809e1
5.495325083e0,-7.939466357e0,-4.606946953e0,1.323317142e0,9.274171366e0
5.505296083e0,-7.494528329e0,-3.944805329e0,2.538545287e-1,8.473127291e0
5.515267083e0,-6.530541739e0,-2.701456316e0,-5.397199318e-2,7.067443286e0
5.525238083e0,-5.108169109e0,7.346675634e-2,5.275498295e-1,5.135863884e0
5.535208083e0,-3.153857730e0,4.212885548e0,1.016608681e0,5.359917577e0
5.545179083e0,3.318780202e-1,8.379972196e0,6.665521789e-1,8.412988103e0
5.555150083e0,5.408636472e0,1.088969071e1,2.981262103e-1,1.216254872e1
5.565121083e0,9.335615979e0,1.308792103e1,3.706527344e-1,1.608057169e1
5.575091083e0,1.229714826e1,1.612968471e1,-1.120149933e0,2.031357477e1
5.585062083e0,1.687415104e1,1.931793518e1,-2.832103579e0,2.580582112e1
5.595033083e0,2.582834203e1,2.263025888e1,1.256741329e-1,3.434017564e1
5.605004083e0,3.779809299e1,2.385767365e1,5.885331897e0,4.508349540e1
5.614974083e0,4.663267217e1,2.249350888e1,1.175114579e1,5.309099249e1
5.624945083e0,4.793296663e1,1.969070921e1,1.599135830e1,5.423114289e1
5.634916083e0,4.107331728e1,1.519166502e1,1.730265605e1,4.708700442e1
5.644887083e0,2.999473812e1,1.283016641e1,1.596189184e1,3.631913375e1
5.654857083e0,2.052706921e1,1.242038652e1,1.159528826e1,2.664727531e1
5.664828083e0,1.625343167e1,9.981209983e0,8.055009093e0,2.070463150e1
5.674799083e0,1.773938342e1,9.199172956e0,6.163174628e0,2.091160512e1
5.684770083e0,2.115055080e1,9.071888427e0,4.969876027e0,2.354452434e1
5.694740083e0,2.388302718e1,7.765015848e0,2.953316360e0,2.528668693e1
5.704711083e0,2.379350163e1,6.211187870e0,5.071500635e-1,2.459607236e1
5.714682083e0,2.097476011e1,4.886202956e0,-1.200021145e0,2.156978423e1
5.724653083e0,1.542502974e1,4.185878429e0,-2.840639344e0,1.623337157e1
5.734623083e0,8.900468529e0,2.514454758e0,-3.825751340e0,1.000885588e1
5.744594083e0,2.688933334e0,-7.816557884e-1,-3.384515769e0,4.392754858e0
5.754565083e0,-2.806973416e0,-3.933124346e0,-2.308170837e0,5.355018160e0
5.764536083e0,-7.046718149e0,-6.176119194e0,-1.281471105e0,9.457423178e0
5.774506083e0,-1.006396329e1,-8.381699463e0,-1.137657739e0,1.314650174e1
5.784477083e0,-1.198019877e1,-1.061079373e1,-2.023316710e0,1.613096142e1
5.794448083e0,-1.350705412e1,-1.162351627e1,-3.263515828e0,1.811621310e1
5.804419083e0,-1.437180352e1,-1.198691137e1,-4.488919151e0,1.924539363e1
5.814389083e0,-1.442234452e1,-1.217576240e1,-5.762935055e0,1.973485830e1
5.824360083e0,-1.391162999e1,-1.199834852e1,-6.119978322e0,1.936357279e1
5.834331083e0,-1.316826411e1,-1.161210017e1,-5.711101828e0,1.846241409e1
5.844302083e0,-1.206720651e1,-1.108899890e1,-4.962501519e0,1.712336973e1
5.854272083e0,-1.046855319e1,-1.036122053e1,-4.252689300e0,1.533071632e1
5.864243083e0,-9.030152755e0,-9.527689996e0,-3.676889416e0,1.363231643e1
5.874214083e0,-8.079425896e0,-8.465257929e0,-3.429657444e0,1.219427180e1
5.884185083e0,-7.746394220e0,-7.466202663e0,-3.119166784e0,1.120178589e1
5.894155083e0,-7.895902846e0,-6.494764380e0,-2.746181084e0,1.058625319e1
5.904126083e0,-8.387605151e0,-5.510476257e0,-2.335093757e0,1.030387944e1
5.914097083e0,-9.005687420e0,-4.678312220e0,-1.771199389e0,1.030175511e1
5.924068083e0,-9.375590469e0,-3.996330408e0,-1.464843296e0,1.029651005e1
5.934038083e0,-9.632853339e0,-3.494862669e0,-1.348771387e0,1.033562348e1
5.944009083e0,-9.673154688e0,-3.122855793e0,-1.310128309e0,1.024883340e1
5.953980083e0,-9.528684608e0,-2.811638909e0,-1.549104012e0,1.005489269e1
5.963951083e0,-9.249874747e0,-2.540391253e0,-1.776161921e0,9.755435497e0
5.973921083e0,-8.755509036e0,-2.399022243e0,-1.752729789e0,9.245880592e0
5.983892083e0,-8.313388197e0,-2.106475226e0,-2.091731472e0,8.827513905e0
5.993863083e0,-7.937245585e0,-1.942567831e0,-2.788766356e0,8.634272120e0
6.003834083e0,-7.546452189e0,-2.277379107e0,-3.404109789e0,8.586230820e0
6.013804083e0,-7.579713491e0,-2.809910764e0,-4.255094844e0,9.135288022e0
6.023775083e0,-8.248112220e0,-3.419601402e0,-4.891835286e0,1.018111396e1
6.033746083e0,-9.426702150e0,-3.931952564e0,-5.321443377e0,1.151697547e1
6.043717083e0,-1.061676373e1,-4.534621865e0,-5.877845707e0,1.295482681e1
6.053687083e0,-1.104770470e1,-5.350902818e0,-6.068980077e0,1.369366493e1
6.063658083e0,-1.078205984e1,-6.146740444e0,-5.695786800e0,1.365566622e1
6.073629083e0,-1.030945747e1,-6.185947194e0,-4.724204677e0,1.291777712e1
6.083600083e0,-1.017281739e1,-5.085954952e0,-3.350846917e0,1.185669965e1
6.093570083e0,-9.932062966e0,-3.438125381e0,-2.695374627e0,1.085042051e1
6.103541083e0,-9.159928783e0,-3.756177660e0,-3.011870962e0,1.034816566e1
6.113512083e0,-8.452592860e0,-4.548769496e0,-3.237603891e0,1.013013864e1
6.123483083e0,-8.074303150e0,-3.839857456e0,-3.131433658e0,9.473370752e0
6.133453083e0,-7.604628477e0,-3.176526800e0,-2.779297374e0,8.697424370e0
6.143424083e0,-6.906381465e0,-2.501693795e0,-1.536678679e0,7.504529176e0
6.153395083e0,-5.923831719e0,-1.367122581e0,-4.570417643e-1,6.096695299e0
6.163366083e0,-4.596972188e0,-6.887704289e-1,7.168394029e-1,4.703234709e0
6.173336083e0,-3.325314465e0,9.749121130e-2,2.565086968e0,4.200820394e0
6.183307083e0,-2.610935863e0,1.377870641e0,4.179577469e0,5.117067657e0
6.193278083e0,-2.636552222e0,2.727433156e0,4.815185013e0,6.129951546e0
6.203249083e0,-2.935187067e0,3.774719181e0,5.676300954e0,7.421874463e0
6.213219083e0,-2.357521483e0,4.478101802e0,8.516308215e0,9.906503364e0
6.223190083e0,-6.108470710e-1,3.612211609e0,1.271960258e1,1.323667241e1
6.233161083e0,1.812220238e0,1.271399276e0,1.673157136e1,1.687738364e1
6.243132083e0,3.548098644e0,-6.380160123e-1,1.950768902e1,1.983799383e1
6.253102083e0,3.342355006e0,1.376607057e-1,2.052398656e1,2.079481454e1
6.263073083e0,2.744766935e0,1.893369505e0,2.045179215e1,2.072183380e1
6.273044083e0,2.366594169e0,2.048062127e0,1.979917740e1,2.004501814e1
6.283015083e0,2.096908451e0,1.888306693e0,2.018252320e1,2.037883632e1
6.292985083e0,1.985399855e0,1.309112355e0,2.137383725e1,2.150573195e1
6.302956083e0,1.762239701e0,4.062336995e-1,2.242465909e1,2.249746319e1
6.312927083e0,1.395402201e0,5.265008390e-2,2.294747267e1,2.298992000e1
6.322898083e0,1.419458377e0,5.491655239e-1,2.315757483e1,2.320753577e1
6.332868083e0,3.214788933e0,6.710206211e-1,2.303528148e1,2.326820426e1
6.342839083e0,6.006314297e0,9.137693869e-1,2.288574946e1,2.367843564e1
6.352810083e0,8.521315770e0,1.473058926e0,2.244649961e1,2.405468914e1
6.362781083e0,1.057262310e1,1.938425956e0,2.070315694e1,2.332720647e1
6.372751083e0,1.156037219e1,2.266500070e0,1.824073772e1,2.171413688e1
6.382722083e0,1.103974547e1,2.000427492e0,1.532438746e1,1.899248644e1
6.392693083e0,8.565464002e0,1.914033711e0,1.285462414e1,1.556509108e1
6.402664083e0,5.199661077e0,1.657842635e0,1.139524799e1,1.263473760e1
6.412634083e0,2.006592358e0,5.753247973e-1,1.028119553e1,1.049096722e1
6.422605083e0,-4.267183962e-1,-3.599139574e-1,9.018187598e0,9.035448755e0
6.432576083e0,-1.986281469e0,-1.049500365e0,7.176650882e0,7.520045411e0
6.442547083e0,-2.457864236e0,-1.357270315e0,4.780278305e0,5.543856058e0
6.452517083e0,-2.480153529e0,-1.299631387e0,1.803092442e0,3.330367191e0
6.462488083e0,-2.437477041e0,-1.244773687e0,-1.622263790e0,3.181586972e0
6.472459083e0,-1.828657638e0,-1.603610879e0,-5.135155179e0,5.682022116e0
6.482429542e0,-1.137241198e0,-2.131704208e0,-8.060228317e0,8.414556489e0
6.492399542e0,-7.502559480e-1,-2.427992273e0,-1.047837885e1,1.078213586e1
6.502370542e0,-7.422068171e-1,-2.894619670e0,-1.221415288e1,1.257438764e1
6.512341542e0,-6.657354690e-1,-3.427303647e0,-1.342463996e1,1.387121379e1
6.522312542e0,-3.369035558e-1,-3.930046372e0,-1.430361213e1,1.483752299e1
6.532282542e0,-1.470886101e-1,-4.282695456e0,-1.433935382e1,1.496596750e1
6.542253542e0,-2.628498852e-1,-4.178236118e0,-1.365163238e1,1.427913911e1
6.552224542e0,-2.959145741e-1,-4.047281291e0,-1.273568008e1,1.336658514e1
6.562195542e0,-3.140081982e-1,-4.142556116e0,-1.192288904e1,1.262595166e1
6.572166542e0,-4.800511426e-1,-4.190470247e0,-1.118810336e1,1.195676155e1
6.582136542e0,-7.570179605e-1,-4.155208321e0,-1.069915334e1,1.150263946e1
6.592107542e0,-1.186622542e0,-4.143938982e0,-1.039033381e1,1.124897063e1
6.602078542e0,-1.622747355e0,-4.178655948e0,-1.019979878e1,1.114138096e1
6.612049542e0,-1.615451199e0,-4.346536234e0,-1.004270281e1,1.106155231e1
6.622019542e0,-1.343823181e0,-4.349687591e0,-9.733054735e0,1.074513831e1
6.631990542e0,-1.315862088e0,-4.145363656e0,-9.418280990e0,1.037398427e1
6.641961542e0,-1.295598855e0,-3.988572907e0,-9.360992895e0,1.025745964e1
6.651932542e0,-1.567053795e0,-3.964820933e0,-9.493528808e0,1.040685120e1
6.661902542e0,-2.051103556e0,-4.070810487e0,-9.646044073e0,1.066886545e1
6.671873542e0,-2.521240744e0,-4.314351405e0,-9.720553973e0,1.092975080e1
6.681844542e0,-2.964448581e0,-4.526189596e0,-9.647550901e0,1.106117471e1
6.691815542e0,-3.388093973e0,-4.629211981e0,-9.454603894e0,1.105885704e1
6.701785542e0,-3.855062263e0,-4.758753828e0,-9.249433283e0,1.109320779e1
6.711756542e0,-4.349550181e0,-4.888952901e0,-8.993259163e0,1.112201230e1
6.721727542e0,-4.879380132e0,-4.952940152e0,-8.778037189e0,1.119794193e1
6.731698542e0,-5.384176399e0,-5.021594650e0,-8.471391658e0,1.122364669e1
6.741668542e0,-5.694165952e0,-4.947730283e0,-8.131988856e0,1.109201531e1
6.751639542e0,-6.005877510e0,-4.615810455e0,-8.015804096e0,1.102857136e1
6.761610542e0,-6.339137228e0,-4.280683429e0,-7.978414076e0,1.105278257e1
6.771581542e0,-6.637963861e0,-4.191999294e0,-8.299015156e0,1.142405685e1
6.781551542e0,-6.787146213e0,-4.109312648e0,-8.952526875e0,1.196242206e1
6.791522542e0,-6.584944818e0,-4.065364975e0,-9.504171326e0,1.225634380e1
6.801493542e0,-6.151702976e0,-4.232275500e0,-9.952419462e0,1.244211632e1
6.811464542e0,-5.603986684e0,-4.541288568e0,-1.001523493e1,1.234232147e1
6.821434542e0,-5.294518703e0,-4.619564660e0,-9.473048936e0,1.179453102e1
6.831405542e0,-5.521824533e0,-4.070362298e0,-8.707026848e0,1.108470622e1
6.841376542e0,-5.913016124e0,-3.524478816e0,-7.387556443e0,1.009760867e1
6.851347542e0,-6.536403573e0,-3.304918792e0,-5.576756201e0,9.205828024e0
6.861318542e0,-6.867057186e0,-2.739090165e0,-4.034316845e0,8.422280079e0
6.871288542e0,-6.997233163e0,-1.979284837e0,-2.483087370e0,7.684046024e0
6.881259542e0,-6.802546610e0,-1.448524302e0,-1.891761374e-1,6.957632546e0
6.891230542e0,-7.022217146e0,-5.372225860e-1,2.864543347e0,7.603009295e0
6.901201542e0,-7.312912642e0,1.592057366e0,7.516201034e0,1.060691359e1
6.911171542e0,-6.046129743e0,4.631919826e0,1.381753894e1,1.577766613e1
6.921142542e0,-1.562811640e0,5.782737821e0,2.017821263e1,2.104857957e1
6.931113542e0,6.722432739e0,3.623015802e0,2.365813157e1,2.486009925e1
6.941084542e0,1.333453086e1,1.064723006e0,2.343464865e1,2.698381192e1
6.951054542e0,1.423787188e1,3.859638294e0,2.248523858e1,2.689237359e1
6.961025542e0,1.323800619e1,1.124554641e1,2.221610060e1,2.820039446e1
6.970996542e0,1.663074314e1,1.560916090e1,2.151472708e1,3.135460098e1
6.980967542e0,2.536651023e1,1.549923324e1,2.257357130e1,3.732629359e1
6.990937542e0,3.248364522e1,1.250375261e1,2.616652627e1,4.354558684e1
7.000908542e0,3.114520587e1,9.744495397e0,2.941600878e1,4.393495888e1
7.010879542e0,2.262646287e1,8.858635794e0,3.109818724e1,3.946554826e1
7.020850542e0,1.485567231e1,8.941194386e0,3.087659180e1,3.541186070e1
7.030821542e0,1.170948087e1,8.049413892e0,2.794691222e1,3.135179276e1
7.040791542e0,1.195379040e1,6.636041297e0,2.184977488e1,2.577484842e1
7.050762542e0,1.319351590e1,5.668967961e0,1.419772139e1,2.019359681e1
7.060733542e0,1.326280774e1,6.000497487e0,6.791393631e0,1.606334544e1
7.070704542e0,1.182505109e1,6.392721696e0,5.947963178e-2,1.344255414e1
7.080674542e0,9.531851460e0,6.137068564e0,-5.236478655e0,1.248761432e1
7.090645542e0,6.547150755e0,5.213934131e0,-7.438021422e0,1.119707349e1
7.100616542e0,4.077873339e0,4.119796706e0,-8.074814197e0,9.940040250e0
7.110587542e0,2.277632584e0,1.854282476e0,-8.008144244e0,8.529733168e0
7.120557542e0,4.924150801e-1,-5.096538413e-1,-7.477930423e0,7.511435486e0
7.130528542e0,-1.415720252e0,-2.539034114e0,-7.406202044e0,7.956304845e0
7.140499542e0,-3.338078352e0,-4.456437868e0,-7.791948708e0,9.576902956e0
7.150470542e0,-5.101660573e0,-5.694029712e0,-7.738898674e0,1.087839454e1
7.160441542e0,-6.215390264e0,-6.487027929e0,-7.629835823e0,1.178672992e1
7.170411542e0,-7.063098539e0,-7.807121063e0,-8.137893375e0,1.330653256e1
7.180382542e0,-7.897428970e0,-8.749804493e0,-8.109209858e0,1.430691258e1
7.190353542e0,-8.856056002e0,-9.277626218e0,-7.854240265e0,1.503971962e1
7.200324542e0,-9.789738813e0,-9.341735675e0,-7.359993253e0,1.540378240e1
7.210294542e0,-1.000588874e1,-9.305165434e0,-7.206772229e0,1.544802509e1
7.220265542e0,-9.893799956e0,-9.800091893e0,-7.557495825e0,1.584439402e1
7.230236542e0,-9.858186904e0,-9.961949254e0,-7.908432845e0,1.609247004e1
7.240207542e0,-1.006001408e1,-9.971380813e0,-7.815211270e0,1.617744868e1
7.250177542e0,-1.096370009e1,-9.447051630e0,-6.867252483e0,1.601900936e1
7.260148542e0,-1.303137144e1,-8.503853645e0,-5.587019234e0,1.653320756e1
7.270119542e0,-1.421108462e1,-8.341662993e0,-4.236143433e0,1.701420520e1
7.280090542e0,-1.377868068e1,-8.677077409e0,-2.852490189e0,1.653119518e1
7.290061542e0,-1.235227347e1,-8.986190464e0,-1.610912736e0,1.535986064e1
7.300031542e0,-1.094121287e1,-8.797280375e0,-7.917264479e-1,1.406161839e1
7.310002542e0,-1.007787498e1,-8.710688959e0,-4.014439528e-1,1.332669590e1
7.319973542e0,-1.095498072e1,-8.282796149e0,-5.234551705e-2,1.373386525e1
7.329944542e0,-1.287739203e1,-7.106546860e0,7.627295208e-1,1.472793231e1
7.339914542e0,-1.544408113e1,-6.057210217e0,1.537441741e0,1.666052715e1
7.349885542e0,-1.805848001e1,-5.640028337e0,1.665306314e0,1.899188945e1
7.359856542e0,-1.901027340e1,-5.701382586e0,9.839068848e-1,1.987119350e1
7.369827542e0,-1.818632002e1,-6.268506956e0,3.770472129e-1,1.924002547e1
7.379797542e0,-1.677258373e1,-6.436478750e0,3.100065466e-1,1.796785819e1
7.389768542e0,-1.566362303e1,-5.300454211e0,4.814994248e-1,1.654314792e1
7.399739542e0,-1.427154716e1,-4.068064050e0,9.327747381e-1,1.486930638e1
7.409710542e0,-1.250583890e1,-3.542250259e0,1.499973367e0,1.308409200e1
7.419680542e0,-1.115468301e1,-3.188131185e0,2.102067303e0,1.179024260e1
7.429651542e0,-1.042747767e1,-2.713236701e0,2.625486367e0,1.108995593e1
7.439622542e0,-1.027362807e1,-1.915139127e0,3.197979065e0,1.092896435e1
7.449593542e0,-9.880668279e0,-8.415745461e-1,3.917620454e0,1.066225133e1
7.459564542e0,-8.938422806e0,-2.164691859e-1,4.362338626e0,9.948480258e0
7.469534542e0,-8.325604784e0,8.725460780e-1,4.012803769e0,9.283298216e0
7.479506083e0,-7.428033793e0,1.906399586e0,3.394594030e0,8.386495934e0
7.489477083e0,-5.396050925e0,2.602898865e0,2.505340118e0,6.493779885e0
7.499448083e0,-2.120508544e0,3.592996489e0,7.310925758e-1,4.235643589e0
7.509418083e0,1.662010238e0,4.626611139e0,-6.930112682e-2,4.916564991e0
7.519389083e0,6.426715069e0,6.131372207e0,3.466814160e-2,8.882431739e0
7.529360083e0,1.333289013e1,7.356695423e0,6.737840152e-1,1.524273308e1
7.539331083e0,2.083899945e1,7.578208417e0,1.867813518e0,2.225268227e1
7.549302083e0,2.701060460e1,6.723213927e0,3.277626328e0,2.802707977e1
7.559272083e0,3.109677689e1,3.737996913e0,4.572248991e0,3.165260834e1
7.569243083e0,3.147626118e1,3.306357207e0,4.734884031e0,3.200165844e1
7.579214083e0,3.085767488e1,7.131609195e0,4.104990386e0,3.193598120e1
7.589185083e0,3.356721147e1,8.912403865e0,4.138287356e0,3.497590672e1
7.599156083e0,4.036713736e1,7.176483067e0,4.403556819e0,4.123589456e1
7.609126083e0,4.900316614e1,2.816751130e0,5.522606306e0,4.939376033e1
7.619097083e0,5.372762283e1,-1.767174458e0,7.812062545e0,5.432134647e1
7.629068083e0,5.093985284e1,-5.068997442e0,8.569886836e0,5.190381781e1
7.639039083e0,4.165027843e1,-7.136884553e0,8.628262514e0,4.312919809e1
7.649009083e0,2.933627381e1,-6.881741298e0,7.572874587e0,3.106965970e1
7.658980083e0,1.909840848e1,-6.634698776e0,5.677763928e0,2.100012947e1
7.668951083e0,1.242030466e1,-5.682572093e0,4.225436305e0,1.429719921e1
7.678922083e0,8.970433388e0,-4.649749741e0,2.972856000e0,1.053217549e1
7.688893083e0,7.252910269e0,-3.972524639e0,1.242392408e0,8.362367983e0
7.698863083e0,5.803804169e0,-3.042905644e0,-5.794976628e-1,6.578695549e0
7.708834083e0,4.263503140e0,-2.367668157e0,-2.022485382e0,5.279560460e0
7.718805083e0,2.703488808e0,-2.145045507e0,-2.820145438e0,4.456825356e0
7.728776083e0,1.093871377e0,-2.383637049e0,-2.952805313e0,3.949346704e0
7.738746083e0,-6.886499763e-1,-2.985857284e0,-2.833687590e0,4.173651623e0
7.748717083e0,-2.580065780e0,-3.532566100e0,-2.636828211e0,5.107702585e0
7.758688083e0,-4.398067453e0,-3.685673688e0,-3.304262150e0,6.621581096e0
7.768659083e0,-5.685095751e0,-4.155663819e0,-4.378560557e0,8.292264349e0
7.778630083e0,-6.793025004e0,-4.728131374e0,-5.756986683e0,1.008183072e1
7.788600083e0,-7.788185440e0,-4.807247711e0,-7.030247127e0,1.154079017e1
7.798571083e0,-8.129397955e0,-4.670420818e0,-7.190262616e0,1.181523670e1
7.808542083e0,-8.196691221e0,-5.200072721e0,-6.144709706e0,1.148842725e1
7.818513083e0,-8.867236463e0,-5.653553531e0,-4.825687782e0,1.157055801e1
7.828483083e0,-9.762886060e0,-5.687800673e0,-3.907453900e0,1.195546807e1
7.838454083e0,-1.040150550e1,-5.931535426e0,-3.433333588e0,1.245641236e1
7.848425083e0,-1.095092275e1,-6.295849705e0,-3.086496636e0,1.300334165e1
7.858396083e0,-1.140542215e1,-6.518425723e0,-2.432676185e0,1.336006892e1
7.868367083e0,-1.172482279e1,-6.381309686e0,-2.108539878e0,1.351438209e1
7.878337083e0,-1.184096604e1,-6.088080007e0,-2.066866187e0,1.347386844e1
7.888308083e0,-1.168687086e1,-5.992476861e0,-1.835257975e0,1.326125564e1
7.898279083e0,-1.166685817e1,-6.095719394e0,-1.465471871e0,1.324465864e1
7.908250083e0,-1.139031177e1,-6.097553081e0,-1.092487925e0,1.296583533e1
7.918220083e0,-1.104801694e1,-6.226727430e0,-5.401295292e-1,1.269340587e1
7.928191083e0,-1.067796771e1,-6.455409696e0,1.210303291e-1,1.247821931e1
7.938162083e0,-1.033026420e1,-6.544578565e0,1.018607186e0,1.227124393e1
7.948133083e0,-1.011173153e1,-6.699758406e0,1.926022550e0,1.228183374e1
7.958104083e0,-9.869248667e0,-6.796442701e0,2.812683806e0,1.230873238e1
7.968074083e0,-9.706265717e0,-6.857223338e0,3.573857968e0,1.240989794e1
7.978045083e0,-9.697227675e0,-6.958687148e0,4.147241782e0,1.263563080e1
7.988016083e0,-9.915440501e0,-7.052216286e0,4.637141390e0,1.302124399e1
7.997987083e0,-1.003603231e1,-7.166762071e0,4.918272010e0,1.327681523e1
8.007957083e0,-1.012023923e1,-7.426277289e0,4.938339654e0,1.348910801e1
8.017928083e0,-1.049638593e1,-7.716193351e0,5.176474528e0,1.401818983e1
8.027899083e0,-1.107156952e1,-7.834883643e0,5.685541309e0,1.470681588e1
8.037870083e0,-1.162451498e1,-7.684980329e0,6.221478385e0,1.526089986e1
8.047841083e0,-1.191907081e1,-7.281144719e0,6.507872669e0,1.540881968e1
8.057811083e0,-1.188589721e1,-6.994713013e0,6.282750188e0,1.515498309e1
8.067782083e0,-1.144542646e1,-7.074925117e0,5.471417441e0,1.452545218e1
8.077753083e0,-1.081057788e1,-7.235673262e0,4.211240727e0,1.367326260e1
8.087724083e0,-1.075180284e1,-7.312625543e0,2.945580493e0,1.333237417e1
8.097694083e0,-1.130145748e1,-7.158676541e0,1.894540264e0,1.351143493e1
8.107665083e0,-1.176342143e1,-6.677269430e0,8.963243651e-1,1.355608381e1
8.117636083e0,-1.189887920e1,-6.025365111e0,1.485754108e-1,1.333830670e1
8.127607083e0,-1.146198109e1,-5.375956383e0,-7.216423059e-1,1.268064215e1
8.137578083e0,-1.064090221e1,-4.910580583e0,-2.097653532e0,1.190557650e1
8.147548083e0,-1.026287855e1,-4.456012191e0,-3.639195925e0,1.176547779e1
8.157519083e0,-9.998020728e0,-3.717503006e0,-4.879876853e0,1.173002324e1
8.167490083e0,-9.606363698e0,-1.672025349e0,-5.398714331e0,1.114558247e1
8.177461083e0,-8.846334422e0,2.477407969e0,-5.283356953e0,1.059759613e1
8.187432083e0,-4.846795646e0,7.477565557e0,-4.642605613e0,1.004784562e1
8.197402083e0,4.001613953e0,1.131849510e1,-2.308442294e0,1.222498063e1
8.207373083e0,1.454167216e1,1.527110295e1,1.287684210e0,2.112640398e1
8.217344083e0,2.228055797e1,2.245567974e1,2.350834900e0,3.172076986e1
8.227315083e0,3.234687417e1,3.005920250e1,1.995811408e0,4.420247942e1
8.237285083e0,4.836865904e1,3.133428611e1,6.708271367e0,5.802038925e1
8.247256083e0,6.292954047e1,2.966114043e1,1.504859184e1,7.117844078e1
8.257227083e0,6.982030636e1,2.402971277e1,2.099896056e1,7.676756230e1
8.267198083e0,6.719902297e1,1.404313387e1,2.517521740e1,7.312119986e1
8.277169083e0,5.710018456e1,5.718297411e0,2.554831887e1,6.281597407e1
8.287139083e0,4.070627119e1,5.453986892e0,1.982067644e1,4.560269402e1
8.297110083e0,2.423753217e1,6.477006971e0,1.131845885e1,2.752302846e1
8.307081083e0,1.441177626e1,4.032031753e0,4.972811329e0,1.576976308e1
8.317052083e0,8.927402558e0,3.455819348e0,1.875962783e0,9.755021280e0
8.327023083e0,6.530713647e0,2.665509973e0,4.791255283e-1,7.069987654e0
8.336993083e0,5.533871552e0,1.320142250e0,-5.677880287e-1,5.717420149e0
8.346964083e0,4.175457521e0,3.240445054e-1,-1.938913906e0,4.615066358e0
8.356935083e0,2.607742406e0,-5.435033727e-1,-3.133766112e0,4.112931609e0
8.366906083e0,1.089215531e0,-1.469278409e0,-4.342835239e0,4.712259270e0
8.376877083e0,-2.012114614e-1,-2.700173437e0,-5.311699576e0,5.962010989e0
8.386847083e0,-1.807338105e0,-3.817274047e0,-5.917712608e0,7.270307744e0
8.396818083e0,-3.407372535e0,-4.694006732e0,-6.277101778e0,8.546689038e0
8.406789083e0,-4.644931051e0,-5.567933922e0,-6.432551760e0,9.693038469e0
8.416760083e0,-5.600519285e0,-6.563511264e0,-6.143059621e0,1.059163245e1
8.426730083e0,-6.287852468e0,-7.401240097e0,-5.687371488e0,1.125440527e1
8.436701083e0,-6.845980312e0,-8.005968495e0,-5.162125461e0,1.173075092e1
8.446672083e0,-7.027710021e0,-8.638970520e0,-4.419405112e0,1.198130466e1
8.456643083e0,-6.894618037e0,-9.116951163e0,-3.847287220e0,1.206052135e1
8.466614083e0,-6.575446601e0,-9.571066981e0,-3.656031228e0,1.217408664e1
8.476584083e0,-6.233387994e0,-1.009690182e1,-3.921273794e0,1.249715729e1
8.486554917e0,-6.057608412e0,-1.040958870e1,-4.393363368e0,1.282013253e1
8.496525917e0,-6.141858019e0,-1.062327753e1,-4.973571467e0,1.324057622e1
8.506496917e0,-6.716446359e0,-1.085029451e1,-5.353962082e0,1.383851338e1
8.516466917e0,-7.528415868e0,-1.079087861e1,-5.314584008e0,1.419031042e1
8.526437917e0,-8.456430972e0,-1.058977532e1,-5.292142979e0,1.454858562e1
8.536408917e0,-9.048594289e0,-1.061343082e1,-5.264293860e0,1.490754045e1
8.546379917e0,-9.420162624e0,-1.090958995e1,-5.347432496e0,1.537379755e1
8.556350917e0,-9.746010996e0,-1.115005319e1,-5.517622724e0,1.580356216e1
8.566320917e0,-1.006617587e1,-1.127511811e1,-5.602692695e0,1.611975033e1
8.576291917e0,-1.048667371e1,-1.140603143e1,-5.161929579e0,1.633136232e1
8.586262917e0,-1.099723621e1,-1.163034816e1,-4.399969552e0,1.660011851e1
8.596233917e0,-1.129915251e1,-1.196974044e1,-3.590435994e0,1.684745572e1
8.606204917e0,-1.139687118e1,-1.240230927e1,-2.574034962e0,1.703911981e1
8.616174917e0,-1.126364003e1,-1.271899680e1,-1.543825877e0,1.705948020e1
8.626145917e0,-1.101810726e1,-1.279997139e1,-1.031596922e0,1.692046534e1
8.636116917e0,-1.087224963e1,-1.293050697e1,-9.720126249e-1,1.692183888e1
8.646087917e0,-1.087976915e1,-1.350323004e1,-1.051989671e0,1.737277412e1
8.656057917e0,-1.097474899e1,-1.398514119e1,-7.049843924e-1,1.779118580e1
8.666028917e0,-1.125976216e1,-1.370229733e1,1.705026157e-1,1.773595972e1
8.675999917e0,-1.136994124e1,-1.291960191e1,1.087582111e0,1.724455022e1
8.685970917e0,-1.140569112e1,-1.160556766e1,1.028566675e0,1.630450674e1
8.695941917e0,-1.132546264e1,-1.114202379e1,3.819912896e-3,1.588744199e1
8.705911917e0,-1.098967108e1,-1.125167312e1,-1.294140851e0,1.578124897e1
8.715882917e0,-1.058234351e1,-1.077986363e1,-2.173888945e0,1.526162662e1
8.725853917e0,-9.925204182e0,-1.047682349e1,-2.861582317e0,1.471265312e1
8.735824917e0,-9.595463904e0,-1.038173841e1,-3.636233726e0,1.459710984e1
8.745795917e0,-9.814754956e0,-1.006103032e1,-3.863740116e0,1.457677035e1
8.755765917e0,-9.554331665e0,-9.692061076e0,-3.578912886e0,1.407231036e1
8.765736917e0,-9.181527228e0,-8.355811501e0,-2.900375084e0,1.274881185e1
8.775707917e0,-7.979818577e0,-5.492310128e0,-1.613879029e0,9.820772912e0
8.785678917e0,-3.737803954e0,-1.845424529e0,1.114731318e0,4.315019815e0
8.795649917e0,2.887853272e0,3.885192381e0,4.448092722e0,6.574187799e0
8.805619917e0,1.201843020e1,9.365176578e0,7.163387058e0,1.683636870e1
8.815590917e0,1.978468332e1,1.331013744e1,4.992983054e0,2.436233430e1
8.825561917e0,2.440175473e1,1.849550208e1,3.467601196e0,3.081482580e1
8.835532917e0,2.753242415e1,2.274085312e1,6.610846814e0,3.631644360e1
8.845503917e0,3.113276299e1,2.502247643e1,1.246135328e1,4.184087217e1
8.855473917e0,3.661325297e1,2.682387727e1,1.832717360e1,4.894829903e1
8.865444917e0,4.246677426e1,2.795463990e1,2.124717253e1,5.510291416e1
8.875415917e0,4.596640768e1,2.768257364e1,2.059119679e1,5.747375839e1
8.885386917e0,4.484656297e1,2.611975322e1,1.679776418e1,5.454924931e1
8.895357917e0,3.944567230e1,2.399490780e1,1.212883382e1,4.773704299e1
8.905327917e0,3.214247422e1,2.086307361e1,7.675469248e0,3.908093292e1
8.915298917e0,2.486536876e1,1.773186858e1,3.316788640e0,3.071981142e1
8.925269917e0,1.964693695e1,1.449952075e1,-1.329833718e-1,2.441835208e1
8.935240917e0,1.667174499e1,1.120061055e1,-4.429876891e-1,2.008972364e1
8.945211917e0,1.434654355e1,8.459541691e0,1.905699090e0,1.676361675e1
8.955181917e0,1.172491401e1,5.781406994e0,4.019484798e0,1.367678812e1
8.965152917e0,8.629279345e0,3.117669312e0,5.123268959e0,1.050867303e1
8.975123917e0,5.013067655e0,1.014133481e0,5.828540230e0,7.754430685e0
8.985094917e0,1.724341557e0,-1.129105529e0,6.491563030e0,6.810919444e0
8.995065917e0,-1.020825620e0,-3.228336055e0,7.102404692e0,7.868188549e0
9.005035917e0,-3.152705829e0,-4.976487474e0,7.334157330e0,9.407169891e0
9.015006917e0,-4.692336767e0,-6.490184256e0,6.991538560e0,1.063118655e1
9.024977917e0,-5.522670041e0,-8.053218675e0,6.017215846e0,1.147000880e1
9.034948917e0,-6.037806231e0,-9.382168586e0,4.505362106e0,1.203239291e1
9.044919917e0,-6.569174293e0,-1.032599339e1,2.613117167e0,1.251433465e1
9.054889917e0,-7.077118993e0,-1.089160275e1,7.596024299e-1,1.301113444e1
9.064860917e0,-7.328487285e0,-1.143423021e1,-8.710959685e-1,1.360908353e1
9.074831917e0,-7.401561694e0,-1.188717424e1,-2.414052218e0,1.420970356e1
9.084802917e0,-7.599151390e0,-1.201025346e1,-3.711902543e0,1.468916303e1
9.094772917e0,-7.543827374e0,-1.201509729e1,-4.080143813e0,1.476209565e1
9.104743917e0,-7.384875494e0,-1.197021640e1,-4.202356467e0,1.467931424e1
9.114714917e0,-7.063353478e0,-1.183478202e1,-4.288310537e0,1.443407895e1
9.124685917e0,-7.129173830e0,-1.151907565e1,-3.910633031e0,1.409990333e1
9.134656917e0,-7.600438362e0,-1.127217112e1,-2.912018352e0,1.390353753e1
9.144626917e0,-8.128874044e0,-1.099504116e1,-1.614503365e0,1.376866531e1
9.154597917e0,-8.604971884e0,-1.097568220e1,-1.676268089e-1,1.394773242e1
9.164568917e0,-9.126906048e0,-1.093420907e1,1.089677753e0,1.428442297e1
9.174539917e0,-9.624083101e0,-1.058774283e1,1.978610361e0,1.444431282e1
9.184510917e0,-1.027622891e1,-1.023598252e1,2.755926054e0,1.476385272e1
9.194480917e0,-1.044419837e1,-1.009252577e1,3.376715876e0,1.491115575e1
9.204451917e0,-1.041552245e1,-1.029891728e1,3.434620560e0,1.504484707e1
9.214422917e0,-1.073913192e1,-1.084399589e1,4.152720331e0,1.581664590e1
9.224393917e0,-1.091152889e1,-1.124104054e1,5.907540207e0,1.674280402e1
9.234364917e0,-1.139277813e1,-1.102051865e1,7.269840882e0,1.743840048e1
9.244334917e0,-1.139910481e1,-1.033688091e1,8.107394882e0,1.739311787e1
9.254305917e0,-1.074483647e1,-1.026310308e1,8.121690155e0,1.693353615e1
9.264276917e0,-1.042210057e1,-1.065612134e1,7.708764464e0,1.678088650e1
9.274247917e0,-1.019043271e1,-1.072337134e1,7.184646950e0,1.644550892e1
9.284218917e0,-1.005494454e1,-1.048670996e1,6.581779135e0,1.594969630e1
9.294188917e0,-1.103511564e1,-9.836401348e0,6.032181210e0,1.596608214e1
9.304159917e0,-1.188995167e1,-9.079018521e0,5.525762633e0,1.594783938e1
9.314130917e0,-1.286145603e1,-8.758798680e0,5.589976755e0,1.653425068e1
9.324101917e0,-1.318463047e1,-8.582921450e0,5.889029092e0,1.679826434e1
9.334072917e0,-1.261880827e1,-9.118394256e0,6.441750600e0,1.684860786e1
9.344042917e0,-1.242847439e1,-9.690677624e0,6.615553238e0,1.709215472e1
9.354013917e0,-1.213901499e1,-1.014318370e1,6.219669256e0,1.699776886e1
9.363984917e0,-1.295686388e1,-8.688039184e0,5.519064063e0,1.654758032e1
9.373955917e0,-1.443646204e1,-7.348039790e0,4.559074044e0,1.682825841e1
9.383926917e0,-1.537787662e1,-6.450782209e0,3.341988970e0,1.700766212e1
9.393896917e0,-1.521159467e1,-4.117023956e0,2.612806095e0,1.597401810e1
9.403867917e0,-1.392922076e1,-4.327354735e-1,1.404846185e0,1.400657144e1
9.413838917e0,-1.136484481e1,2.899271715e0,-8.581619275e-1,1.176018350e1
9.423809917e0,-5.310989724e0,5.856389349e0,-3.345719494e0,8.584739192e0
9.433780917e0,4.195872490e0,1.027270421e1,-3.962918249e0,1.178297580e1
9.443750917e0,1.397990208e1,1.509601393e1,-3.094113219e0,2.080626914e1
9.453721917e0,2.051633840e1,1.820977555e1,-2.784368665e0,2.757297183e1
9.463692917e0,2.559222445e1,1.951906069e1,1.978890150e0,3.224704154e1
9.473663917e0,3.629154619e1,1.781865061e1,1.175621649e1,4.210450404e1
9.483635292e0,5.070987951e1,1.411314258e1,1.827144730e1,5.571820582e1
9.493605292e0,6.138123051e1,1.243308433e1,2.069440717e1,6.595828631e1
9.503576292e0,6.232485417e1,1.415123369e1,1.896197657e1,6.666484394e1
9.513547292e0,5.359497056e1,1.690975123e1,1.394763481e1,5.790420600e1
9.523518292e0,4.083657990e1,1.770465096e1,7.813709705e0,4.518998763e1
9.533489292e0,3.040273344e1,1.686061707e1,1.871583803e0,3.481536205e1
9.543459292e0,2.498588689e1,1.451390373e1,-1.246476542e-1,2.889573467e1
9.553430292e0,2.315387003e1,1.170850204e1,9.724328935e-2,2.594610132e1
9.563401292e0,2.093434181e1,9.984310176e0,9.059124832e-1,2.321107051e1
9.573372292e0,1.711315013e1,8.515369152e0,2.276281146e0,1.924975000e1
9.583343292e0,1.292198757e1,6.712628127e0,4.032703598e0,1.510959422e1
9.593313292e0,8.617366812e0,4.622963061e0,6.091408827e0,1.152111365e1
9.603284292e0,4.365618914e0,2.684157913e0,7.579915220e0,9.149778519e0
9.613255292e0,2.781561416e-1,6.972804666e-1,7.972085634e0,8.007354136e0
9.623226292e0,-3.051540812e0,-1.073762217e0,6.744066267e0,7.479792540e0
9.633197292e0,-5.988938711e0,-2.763491766e0,4.032605950e0,7.730859226e0
9.643167292e0,-8.543567934e0,-3.978058444e0,1.347458103e0,9.520144188e0
9.653138292e0,-1.064690379e1,-5.256549808e0,-6.180775917e-1,1.188990732e1
9.663109292e0,-1.157574452e1,-6.523487658e0,-2.210226467e0,1.346992403e1
9.673080292e0,-1.170863536e1,-7.602704158e0,-2.679219940e0,1.421518456e1
9.683051292e0,-1.189265192e1,-8.317640877e0,-1.735833821e0,1.461613623e1
9.693021292e0,-1.134837671e1,-8.961739748e0,-3.137651002e-1,1.446363999e1
9.702992292e0,-1.070558528e1,-9.722644937e0,1.163013751e0,1.450834180e1
9.712963292e0,-1.052444204e1,-1.004260458e1,2.588805614e0,1.477564555e1
9.722934292e0,-1.083715698e1,-9.910917095e0,3.415669734e0,1.507770039e1
9.732905292e0,-1.115087414e1,-9.640586867e0,3.327605989e0,1.511144834e1
9.742875292e0,-1.139181918e1,-9.282552497e0,2.731765358e0,1.494663397e1
9.752846292e0,-1.163529257e1,-8.672865660e0,1.934940577e0,1.464044490e1
9.762817292e0,-1.193057696e1,-7.963220086e0,1.321118297e0,1.440475249e1
9.772788292e0,-1.222064914e1,-7.282735747e0,9.197354472e-1,1.425582052e1
9.782759292e0,-1.241924982e1,-6.850363970e0,7.709109449e-1,1.420420910e1
9.792729292e0,-1.272065040e1,-6.499830408e0,1.101221473e0,1.432743629e1
9.802700292e0,-1.316265312e1,-6.111940155e0,1.888419398e0,1.463480022e1
9.812671292e0,-1.311463111e1,-6.130128504e0,2.629867101e0,1.471353885e1
9.822642292e0,-1.283588849e1,-6.307107350e0,3.061604455e0,1.462576693e1
9.832613292e0,-1.260823534e1,-6.352990451e0,3.343097602e0,1.450876933e1
9.842584292e0,-1.244597627e1,-6.273840201e0,3.468274795e0,1.436288015e1
9.852554292e0,-1.229279676e1,-6.512696621e0,3.458499420e0,1.433489755e1
9.862525292e0,-1.291660112e1,-7.061182991e0,3.687085791e0,1.517542392e1
9.872496292e0,-1.313634065e1,-6.256683301e0,4.256961568e0,1.516018646e1
9.882467292e0,-1.318822884e1,-5.515320675e0,4.827775823e0,1.508825906e1
9.892438292e0,-1.347606739e1,-5.235637826e0,5.037276882e0,1.530981561e1
9.902408292e0,-1.319952216e1,-5.038756227e0,4.997219946e0,1.498628228e1
9.912379292e0,-1.278438271e1,-4.605449773e0,5.024224727e0,1.448769971e1
9.922350292e0,-1.223785048e1,-4.077176351e0,4.934758819e0,1.381087238e1
9.932321292e0,-1.153320018e1,-3.654285834e0,4.917190275e0,1.305937485e1
9.942292292e0,-1.063812244e1,-3.448022379e0,4.786364672e0,1.216420134e1
9.952262292e0,-9.621825491e0,-3.231421046e0,4.584195144e0,1.113716539e1
9.962233292e0,-8.629823136e0,-3.128653892e0,4.606016953e0,1.027023440e1
9.972204292e0,-7.764762079e0,-2.956723532e0,4.826444412e0,9.608762139e0
9.982175292e0,-7.772342994e0,-2.344493741e0,4.586434336e0,9.324234361e0
9.992146292e0,-7.654368401e0,-1.685327765e0,3.944332289e0,8.774248828e0
1.000211629e1,-7.442592191e0,-4.787697253e-1,3.467973078e0,8.224854785e0
1.001208729e1,-6.521684961e0,1.699105267e0,2.119570943e0,7.064836475e0
1.002205829e1,-4.304531883e0,4.450371382e0,5.612444097e-1,6.216895966e0
1.003202929e1,1.228760210e0,6.910691448e0,-1.610465863e0,7.201465700e0
1.004200029e1,9.489821674e0,1.016693860e1,-3.819961427e0,1.442274111e1
1.005197029e1,2.106770978e1,1.305405045e1,-6.402510520e0,2.559782744e1
1.006194129e1,3.356410777e1,1.285511063e1,-9.824161956e0,3.726013094e1
1.007191229e1,4.336137487e1,1.149871564e1,-1.224126642e1,4.650029995e1
1.008188329e1,4.838881557e1,1.139910014e1,-1.510065311e1,5.195619963e1
1.009185429e1,5.076881477e1,1.250739893e1,-1.762502357e1,5.517743232e1
1.010182529e1,5.348786828e1,1.161288720e1,-1.919061557e1,5.800078386e1
1.011179529e1,5.462813614e1,7.755873726e0,-1.982482796e1,5.862943492e1
1.012176629e1,5.160896610e1,2.970588157e0,-1.969277445e1,5.531830747e1
1.013173729e1,4.401393349e1,-1.699965392e-1,-1.813334659e1,4.760329294e1
1.014170829e1,3.474186096e1,-1.721983229e0,-1.374212389e1,3.740064302e1
1.015167929e1,2.651924435e1,-3.793097857e0,-9.090687225e0,2.828954766e1
1.016164929e1,1.959947276e1,-5.059649498e0,-4.370466549e0,2.070846116e1
1.017162029e1,1.331748155e1,-5.223556309e0,3.684935769e-1,1.431001896e1
1.018159129e1,7.318755180e0,-3.694322889e0,5.220751984e0,9.719488169e0
1.019156229e1,4.174323746e0,-3.378626162e0,8.018068138e0,9.650363213e0
1.020153329e1,1.467856366e0,-4.524371112e0,6.959730291e0,8.429850651e0
1.021150329e1,-7.825743860e-1,-4.783840429e0,7.803163083e0,9.186234594e0
1.022147429e1,-1.878656010e0,-5.889958214e0,6.909612052e0,9.271660848e0
1.023144529e1,-3.378534068e0,-6.640417938e0,5.430685737e0,9.219652402e0
1.024141629e1,-4.520733266e0,-7.372403383e0,4.065711715e0,9.556117029e0
1.025138729e1,-5.864265549e0,-8.033249264e0,2.623452998e0,1.028616594e1
1.026135829e1,-8.104857191e0,-8.662189813e0,-3.767798417e0,1.244662795e1
1.027132829e1,-1.169805190e1,-7.434309025e0,-6.606039233e0,1.535425424e1
1.028129929e1,-1.209014747e1,-8.632849070e0,-2.789170983e0,1.511546307e1
1.029127029e1,-1.218908938e1,-8.602047107e0,-2.159745407e0,1.507426995e1
1.030124129e1,-1.185202078e1,-8.259555806e0,3.849616751e-1,1.445125788e1
1.031121229e1,-1.147191434e1,-8.619049641e0,2.857995050e0,1.463082264e1
1.032118229e1,-1.205669087e1,-8.598441129e0,4.014374916e0,1.534314800e1
1.033115329e1,-1.281105069e1,-8.359184175e0,6.103073437e0,1.646956239e1
1.034112429e1,-1.320686743e1,-8.181121255e0,7.101283196e0,1.708157824e1
1.035109529e1,-1.349974510e1,-7.263396081e0,7.421491928e0,1.703169348e1
1.036106629e1,-1.404130252e1,-7.147532333e0,8.188615047e0,1.775665541e1
1.037103629e1,-1.440918477e1,-7.358352524e0,8.688713368e0,1.836474061e1
1.038100729e1,-1.417619545e1,-7.022069796e0,8.401598707e0,1.791258894e1
1.039097829e1,-1.322753383e1,-6.946645392e0,8.586720386e0,1.723239102e1
1.040094929e1,-1.241950125e1,-7.602667905e0,8.965325845e0,1.710034029e1
1.041092029e1,-1.182669415e1,-8.065764461e0,9.011456283e0,1.691548389e1
1.042089129e1,-1.208320098e1,-8.324114914e0,9.361824954e0,1.740512572e1
1.043086129e1,-1.283410509e1,-8.178458433e0,1.002608268e1,1.822426322e1
1.044083229e1,-1.347867642e1,-8.080318766e0,1.022048389e1,1.874632125e1
1.045080329e1,-1.397736205e1,-8.033966718e0,1.000945437e1,1.897631281e1
1.046077429e1,-1.459150213e1,-7.675882062e0,9.643318101e0,1.910038439e1
1.047074529e1,-1.513011489e1,-7.264901739e0,9.123388948e0,1.910328243e1
1.048071529e1,-1.550509098e1,-6.907409406e0,8.359365438e0,1.892086524e1
1.049068654e1,-1.564895237e1,-6.776353422e0,7.661654617e0,1.869517658e1
1.050065754e1,-1.567986543e1,-7.056984106e0,7.282491918e0,1.867334713e1
1.051062854e1,-1.570130600e1,-7.491968418e0,6.994262778e0,1.875047500e1
1.052059954e1,-1.551842965e1,-7.507041371e0,7.184140581e0,1.867589904e1
1.053056954e1,-1.537258957e1,-7.362154384e0,7.386102240e0,1.857612267e1
1.054054054e1,-1.485307849e1,-7.024266011e0,7.122409186e0,1.790762313e1
1.055051154e1,-1.405971658e1,-6.539499673e0,6.521292613e0,1.682165103e1
1.056048254e1,-1.331747336e1,-5.604933348e0,5.520953298e0,1.546775032e1
1.057045354e1,-1.258213687e1,-4.468408872e0,3.901533594e0,1.391038499e1
1.058042354e1,-1.154778431e1,-3.549257855e0,2.253742176e0,1.228934121e1
1.059039454e1,-9.944577177e0,-2.386113929e0,8.754885431e-1,1.026424060e1
1.060036554e1,-8.747449234e0,-6.996032730e-1,2.670003851e-1,8.779442012e0
1.061033654e1,-7.112602236e0,1.993706702e0,2.351494320e-1,7.390485251e0
1.062030754e1,-3.290219477e0,3.990639313e0,4.217047012e-1,5.189275594e0
1.063027854e1,2.809460821e0,5.536334399e0,7.187362397e-1,6.249852035e0
1.064024854e1,1.066389814e1,7.566755476e0,1.923352711e0,1.321642151e1
1.065021954e1,1.921735839e1,1.001039461e1,7.284492835e0,2.285998031e1
1.066019054e1,2.770545496e1,1.263097633e1,1.648300389e1,3.462402655e1
1.067016154e1,3.591995563e1,1.277768531e1,2.173472740e1,4.388520058e1
1.068013254e1,4.007792471e1,1.335811151e1,1.914494881e1,4.638111962e1
1.069010354e1,4.321038105e1,1.642017205e1,1.777687810e1,4.952551338e1
1.070007354e1,5.084076827e1,1.529979524e1,1.810033438e1,5.609357857e1
1.071004454e1,5.878203557e1,1.123541552e1,1.581531969e1,6.190061877e1
1.072001554e1,6.094655786e1,6.479630617e0,1.387410724e1,6.284074617e1
1.072998654e1,5.707863406e1,-2.550868294e-1,1.261215765e1,5.845598392e1
1.073995754e1,4.699358103e1,-2.969621320e0,1.103463617e1,4.836298693e1
1.074992754e1,3.469284492e1,-3.151040834e0,1.075711094e1,3.645871614e1
1.075989854e1,2.586074730e1,-4.215919084e0,1.100329977e1,2.841874083e1
1.076986954e1,2.027133538e1,-4.744475219e0,1.101207644e1,2.355213177e1
1.077984054e1,1.628761099e1,-4.851313205e0,1.062289863e1,2.004164382e1
1.078981154e1,1.297935227e1,-5.586470765e0,9.548541752e0,1.705423380e1
1.079978254e1,9.297029618e0,-5.862336552e0,7.671938699e0,1.340374548e1
1.080975254e1,5.838310343e0,-6.044506556e0,5.361175207e0,9.968155635e0
1.081972354e1,2.928392603e0,-6.748324209e0,2.925580384e0,7.916715446e0
1.082969454e1,4.625521803e-1,-7.668281851e0,9.781830454e-1,7.744245808e0
1.083966554e1,-1.819672807e0,-8.391214052e0,-4.386525634e-1,8.597447207e0
1.084963654e1,-3.831238368e0,-9.003664284e0,-1.671051203e0,9.926568898e0
1.085960654e1,-5.649226592e0,-9.553010194e0,-3.189057384e0,1.154746084e1
1.086957754e1,-7.412386644e0,-9.722294689e0,-5.227685612e0,1.329643511e1
1.087954854e1,-9.333663594e0,-9.439392362e0,-7.101693086e0,1.505501408e1
1.088951954e1,-1.037854232e1,-8.359681773e0,-8.770543982e0,1.595370997e1
1.089949054e1,-1.076654601e1,-8.471182913e0,-1.060946407e1,1.732744011e1
1.090946154e1,-1.105564521e1,-8.237604774e0,-1.141675405e1,1.790049431e1
1.091943154e1,-1.063165776e1,-7.758329557e0,-1.193022729e1,1.776384383e1
1.092940254e1,-1.008429990e1,-7.941488324e0,-1.164113043e1,1.732848115e1
1.093937354e1,-9.847630341e0,-8.180826555e0,-1.061525866e1,1.663085875e1
1.094934454e1,-1.028018046e1,-8.013095666e0,-9.340196688e0,1.603530750e1
1.095931554e1,-1.103764982e1,-7.908600660e0,-7.795159414e0,1.565695335e1
1.096928554e1,-1.174972959e1,-8.621268075e0,-6.207123470e0,1.584016384e1
1.097925654e1,-1.262762236e1,-9.290241585e0,-3.607554302e0,1.608663679e1
1.098922754e1,-1.324178700e1,-8.821438147e0,-7.284660065e-1,1.592775429e1
1.099919854e1,-1.403814737e1,-8.785240958e0,1.153071877e0,1.660059080e1
1.100916954e1,-1.425376578e1,-9.097243123e0,2.257050823e0,1.705942408e1
1.101914054e1,-1.450867398e1,-9.639042617e0,2.465309495e0,1.759234249e1
1.102911054e1,-1.502562047e1,-9.635215614e0,2.327405253e0,1.800065181e1
1.103908154e1,-1.523447249e1,-9.687563982e0,2.059419174e0,1.817083529e1
1.104905254e1,-1.524947527e1,-1.006213428e1,1.571831555e0,1.833749429e1
1.105902354e1,-1.523486191e1,-1.050650746e1,1.126443291e0,1.854067396e1
1.106899454e1,-1.516173663e1,-1.075138769e1,1.068838277e0,1.861754576e1
1.107896454e1,-1.492070739e1,-1.067597965e1,1.485337787e0,1.840679980e1
1.108893554e1,-1.476460076e1,-1.032185356e1,1.888243690e0,1.811351873e1
1.109890654e1,-1.447200960e1,-9.857950677e0,2.189471190e0,1.764687047e1
1.110887754e1,-1.392535224e1,-9.471742668e0,2.199224346e0,1.698428485e1
1.111884854e1,-1.336065271e1,-9.233472138e0,1.963492677e0,1.635907552e1
1.112881954e1,-1.279696709e1,-8.866225480e0,1.749275254e0,1.566627859e1
1.113878954e1,-1.256035833e1,-8.468939921e0,1.368291732e0,1.521044927e1
1.114876054e1,-1.228636833e1,-8.028589618e0,1.262898009e0,1.473119172e1
1.115873154e1,-1.183677008e1,-7.279667128e0,1.439033686e0,1.397045086e1
1.116870254e1,-1.154580678e1,-6.534349446e0,1.046607163e0,1.330784593e1
1.117867354e1,-1.107417738e1,-5.993146952e0,1.468855472e-1,1.259272768e1
1.118864354e1,-1.051261547e1,-5.535911061e0,-4.559728932e-1,1.188988253e1
1.119861454e1,-9.744911719e0,-4.892044617e0,-5.756431782e-1,1.091910115e1
1.120858554e1,-9.045080112e0,-4.018939252e0,-8.072958291e-1,9.930612947e0
1.121855654e1,-8.802389672e0,-3.047604466e0,-1.086967569e0,9.378243728e0
1.122852754e1,-8.516705825e0,-1.076810371e0,-1.000168576e0,8.642576923e0
1.123849854e1,-7.394812253e0,2.143961141e0,-7.137362856e-1,7.732350038e0
1.124846854e1,-3.678438928e0,5.342858804e0,-1.805982721e-1,6.489196320e0
1.125843954e1,3.804003206e0,8.690404383e0,1.490136012e0,9.602815945e0
1.126841054e1,1.506629955e1,1.135016479e1,3.897719455e0,1.926166763e1
1.127838154e1,2.746158631e1,1.324994387e1,6.565373018e0,3.118980375e1
1.128835254e1,3.625554605e1,1.693832189e1,9.060512668e0,4.103004092e1
1.129832354e1,4.234193387e1,2.314779360e1,1.112955753e1,4.952299227e1
1.130829354e1,5.187722232e1,2.722168674e1,1.542389187e1,6.058186911e1
1.131826454e1,6.548034386e1,2.406841432e1,1.790208219e1,7.202394426e1
1.132823554e1,6.926260361e1,1.589800399e1,1.607117513e1,7.285833830e1
1.133820654e1,6.860057718e1,7.352229320e0,1.334379051e1,7.027198026e1
1.134817754e1,5.861251777e1,2.920711993e0,1.042569544e1,5.960413512e1
1.135814854e1,3.800832612e1,2.210638111e0,7.695469065e0,3.884250275e1
1.136811854e1,2.261891295e1,1.018790496e0,5.274668575e0,2.324812435e1
1.137808954e1,1.298780500e1,4.535638404e-1,3.931913972e0,1.357750884e1
1.138806054e1,7.955514625e0,-1.010296538e-1,3.344810836e0,8.630653479e0
1.139803154e1,5.954652393e0,-1.420668751e0,2.854976717e0,6.754781779e0
1.140800254e1,4.829537589e0,-2.913806139e0,2.232186270e0,6.066082350e0
1.141797354e1,3.077147523e0,-3.762444706e0,9.605817568e-1,4.954547846e0
1.142794354e1,1.061770163e0,-3.675684305e0,-1.496574966e0,4.108253597e0
1.143791454e1,-7.234882718e-1,-4.074436930e0,-4.869012727e0,6.389973123e0
1.144788554e1,-2.209666888e0,-5.262801066e0,-7.412125858e0,9.355175709e0
1.145785654e1,-3.500266081e0,-6.639944898e0,-8.372732173e0,1.124470431e1
1.146782754e1,-5.157424884e0,-8.065703065e0,-7.746856735e0,1.231537197e1
1.147779754e1,-6.919533607e0,-9.701471000e0,-6.104232355e0,1.338880643e1
1.148776808e1,-8.503592275e0,-1.128793872e1,-3.761312685e0,1.462450393e1
1.149773908e1,-9.844606161e0,-1.219123998e1,-6.846785474e-1,1.568475016e1
1.150771008e1,-1.082370722e1,-1.209670805e1,2.440966367e0,1.641466723e1
1.151768108e1,-1.123886538e1,-1.166641145e1,4.339930927e0,1.677057696e1
1.152765208e1,-1.098975762e1,-1.174759185e1,4.389399540e0,1.667475682e1
1.153762208e1,-1.084120560e1,-1.205955718e1,3.025652264e0,1.649603679e1
1.154759308e1,-1.079961786e1,-1.174703052e1,1.527189817e0,1.602987151e1
1.155756408e1,-1.127970467e1,-1.127171504e1,3.381316904e-1,1.594984735e1
1.156753508e1,-1.234127369e1,-1.074720810e1,-1.311214721e-1,1.636541203e1
1.157750608e1,-1.358824154e1,-1.003942486e1,1.868898030e-1,1.689571803e1
1.158747708e1,-1.459794810e1,-9.670170270e0,1.095623056e0,1.754459095e1
1.159744708e1,-1.542659445e1,-9.486170087e0,1.919734454e0,1.821133218e1
1.160741808e1,-1.605937545e1,-9.411497635e0,2.412535450e0,1.876966049e1
1.161738908e1,-1.640077800e1,-9.381324248e0,2.987885098e0,1.912909358e1
1.162736008e1,-1.660184270e1,-9.205836443e0,3.479721304e0,1.929966492e1
1.163733108e1,-1.654585444e1,-8.935928383e0,3.510697514e0,1.912958735e1
1.164730208e1,-1.614880978e1,-8.807256895e0,3.342029901e0,1.869548061e1
1.165727208e1,-1.582014013e1,-8.732793773e0,2.903081760e0,1.830208744e1
1.166724308e1,-1.567149455e1,-8.686606032e0,2.368305942e0,1.807378596e1
1.167721408e1,-1.558728529e1,-8.578004526e0,2.167235398e0,1.792324004e1
1.168718508e1,-1.552380441e1,-8.369974626e0,1.860730201e0,1.773435354e1
1.169715608e1,-1.543197857e1,-8.271745496e0,1.345231483e0,1.756067720e1
1.170712608e1,-1.555561209e1,-7.978487751e0,7.371338459e-1,1.749790561e1
1.171709708e1,-1.585563741e1,-7.285889150e0,2.293817385e-1,1.745101814e1
1.172706808e1,-1.591884815e1,-6.818007817e0,-1.045118900e-1,1.731779084e1
1.173703908e1,-1.570581303e1,-6.458911008e0,-1.965214097e-1,1.698318919e1
1.174701008e1,-1.539243619e1,-5.946266316e0,-1.690921942e-1,1.650193222e1
1.175698108e1,-1.492775562e1,-5.409781941e0,-5.396980047e-3,1.587777244e1
1.176695108e1,-1.416018110e1,-4.978604751e0,4.787103029e-1,1.501753633e1
1.177692208e1,-1.339695573e1,-4.293687929e0,9.681830641e-1,1.410147359e1
1.178689308e1,-1.271011839e1,-3.306878194e0,1.085245564e0,1.317802378e1
1.179686408e1,-1.182245726e1,-2.496734771e0,9.075487534e-1,1.211725319e1
1.180683508e1,-1.087390323e1,-1.709065121e0,5.071898246e-1,1.101907058e1
1.181680508e1,-9.858309696e0,-7.549582788e-1,-2.911072127e-1,9.891459724e0
1.182677608e1,-8.743309405e0,4.261545785e-1,-1.084422276e0,8.820603084e0
1.183674708e1,-7.010038565e0,1.466350562e0,-1.498064836e0,7.316763144e0
1.184671808e1,-4.732173262e0,2.892777212e0,-1.649422352e0,5.786382106e0
1.185668908e1,-1.528474451e0,5.819312155e0,-1.806649888e0,6.282086590e0
1.186666008e1,4.694421299e0,9.132823430e0,-1.069706588e0,1.032425917e1
1.187663108e1,1.462048911e1,1.073300872e1,1.052961917e0,1.816768854e1
1.188660108e1,2.511743521e1,1.134047127e1,5.095665423e0,2.802601731e1
1.189657208e1,3.149335610e1,1.585101811e1,9.650863933e0,3.655441736e1
1.190654308e1,3.445289156e1,2.281891813e1,9.352789836e0,4.236955793e1
1.191651408e1,4.302587567e1,2.733482335e1,9.779923092e0,5.190438749e1
1.192648508e1,5.977296086e1,2.499684458e1,1.307356027e1,6.609513649e1
1.193645608e1,6.899655998e1,1.831955351e1,1.200218547e1,7.238911372e1
1.194642608e1,6.858188480e1,4.016981605e0,1.189466102e1,6.972154634e1
1.195639708e1,6.862880286e1,-7.719725654e0,1.342370440e1,7.035412273e1
1.196636808e1,6.795402482e1,-1.336938611e1,1.147959992e1,7.020164662e1
1.197633908e1,5.495671224e1,-1.644633366e1,1.348342202e1,5.892813233e1
1.198631008e1,3.472834220e1,-1.255812704e1,1.033228500e1,3.834736522e1
1.199628108e1,1.839463761e1,-1.018025271e1,3.044089705e0,2.124303933e1
1.200625108e1,7.890207074e0,-1.161914256e1,4.870789111e-2,1.404500672e1
1.201622208e1,2.045545485e0,-1.144787176e1,-1.890264487e-1,1.163072462e1
1.202619308e1,-1.273686706e0,-1.039111617e1,2.455787889e0,1.075306781e1
1.203616408e1,-2.881507289e0,-9.976258560e0,4.460850762e0,1.130168167e1
1.204613508e1,-4.594278376e0,-1.039870352e1,4.292816402e0,1.215190114e1
1.205610608e1,-7.004284905e0,-1.061693915e1,2.441976766e0,1.295155027e1
1.206607608e1,-9.470596029e0,-1.071115183e1,-9.552420795e-2,1.429790500e1
1.207604708e1,-1.179699264e1,-1.060457814e1,-1.755483243e0,1.595956873e1
1.208601808e1,-1.364614886e1,-1.054370394e1,-2.355300565e0,1.740501400e1
1.209598908e1,-1.478930057e1,-1.063683839e1,-2.133817391e0,1.834172617e1
1.210596008e1,-1.530250952e1,-1.080491544e1,-1.393055860e0,1.878439778e1
1.211593108e1,-1.548192548e1,-1.092954065e1,-6.932177480e-1,1.896379251e1
1.212590108e1,-1.564863545e1,-1.076798442e1,-4.230342118e-1,1.900021679e1
1.213587208e1,-1.582100318e1,-1.029597847e1,-4.934172928e-1,1.888265804e1
1.214584308e1,-1.568324395e1,-9.565449561e0,-8.078747034e-1,1.838789351e1
1.215581408e1,-1.519693336e1,-8.936550527e0,-1.067754203e0,1.766207287e1
1.216578508e1,-1.520816235e1,-8.153715355e0,-1.306105278e0,1.730540919e1
1.217575608e1,-1.518601544e1,-7.211414918e0,-1.386333755e0,1.686835770e1
1.218572608e1,-1.491810888e1,-6.779807373e0,-7.532725266e-1,1.640375506e1
1.219569708e1,-1.459313935e1,-6.390442452e0,-1.375531170e-1,1.593161610e1
1.220566808e1,-1.403800352e1,-6.226776547e0,8.275856674e-1,1.537931036e1
1.221563908e1,-1.355189759e1,-6.231808661e0,1.898065842e0,1.503635665e1
1.222561008e1,-1.318036317e1,-6.280476206e0,2.960710456e0,1.489738773e1
1.223558108e1,-1.265188597e1,-6.510732542e0,3.804234756e0,1.472861361e1
1.224555108e1,-1.231237207e1,-6.937582208e0,4.305363065e0,1.477364898e1
1.225552208e1,-1.223688569e1,-7.137652293e0,4.755941317e0,1.494344102e1
1.226549308e1,-1.233466867e1,-7.077271020e0,4.852526502e0,1.502593857e1
1.227546408e1,-1.282503021e1,-7.201561190e0,4.784911054e0,1.546736103e1
1.228543508e1,-1.391720824e1,-7.264371396e0,5.808116491e0,1.673899621e1
1.229540608e1,-1.453297969e1,-7.627480565e0,6.269576411e0,1.756967691e1
1.230537608e1,-1.567360189e1,-7.735599675e0,7.139847922e0,1.888064424e1
1.231534708e1,-1.640061545e1,-7.598810497e0,7.749394426e0,1.966660169e1
1.232531808e1,-1.648901599e1,-7.749865712e0,7.536706635e0,1.971674450e1
1.233528908e1,-1.633445888e1,-8.025480654e0,7.198488479e0,1.957143641e1
1.234526008e1,-1.602107151e1,-8.053394092e0,6.820288231e0,1.918458288e1
1.235523108e1,-1.592165247e1,-7.912717685e0,6.611832654e0,1.896909196e1
1.236520108e1,-1.574921808e1,-7.623683968e0,6.564412905e0,1.868823010e1
1.237517208e1,-1.533112462e1,-7.396948825e0,6.463741393e0,1.820819010e1
1.238514308e1,-1.455778357e1,-7.265028623e0,5.759883978e0,1.725937331e1
1.239511408e1,-1.409635640e1,-6.823547469e0,5.261407675e0,1.652121286e1
1.240508508e1,-1.342637073e1,-6.385878700e0,4.487698545e0,1.553017437e1
1.241505608e1,-1.245559143e1,-5.922175788e0,3.192386788e0,1.415645639e1
1.242502608e1,-1.190640808e1,-5.421371123e0,1.750926800e0,1.319922584e1
1.243499708e1,-1.032082679e1,-5.918137701e0,2.534231503e-1,1.189991777e1
1.244496808e1,-7.789442591e0,-6.719813186e0,-4.317068752e-1,1.029648853e1
1.245493908e1,-4.390196516e0,-4.476368980e0,6.455653524e-1,6.303051587e0
1.246491008e1,1.072973428e0,2.892456785e-1,1.940483884e0,2.236160267e0
1.247488108e1,1.146123616e1,2.236455614e0,3.916394147e-1,1.168396548e1
1.248485158e1,2.406442418e1,6.242342420e0,-3.509999356e0,2.510743805e1
1.249482258e1,3.703554357e1,1.435216857e1,-9.510131392e0,4.084187593e1
1.250479358e1,5.337598532e1,1.980066493e1,-1.532113992e1,5.895591123e1
1.251476458e1,6.831680946e1,1.817440223e1,-1.301310356e1,7.188070823e1
1.252473558e1,6.888297898e1,1.488066214e1,-4.879713131e0,7.064071418e1
1.253470658e1,6.861922278e1,1.139119821e1,5.247940952e0,6.975598910e1
1.254467758e1,6.835809548e1,8.459097887e0,1.261101861e1,7.002444820e1
1.255464758e1,5.700039363e1,5.370203308e0,1.234671160e1,5.856897852e1
1.256461858e1,3.693399614e1,2.926334383e0,8.479087179e0,3.800761007e1
1.257458958e1,2.404219073e1,2.568768667e0,5.616182222e0,2.482271158e1
1.258456058e1,1.787949440e1,3.223657697e0,3.948670923e0,1.859194156e1
1.259453158e1,1.621595921e1,2.962582735e0,1.989651804e0,1.660400385e1
1.260450258e1,1.494429739e1,3.161724574e0,1.029823754e0,1.530977021e1
1.261447258e1,1.296003891e1,3.269238498e0,3.383082032e-1,1.337030222e1
1.262444358e1,1.013404334e1,2.244198205e0,-7.073517108e-1,1.040363429e1
1.263441458e1,6.531868472e0,3.533352551e-1,-1.730714584e0,6.766500167e0
1.264438558e1,2.549286037e0,-2.242055785e0,-2.068341586e0,3.975388077e0
1.265435658e1,-1.517210959e0,-5.258708600e0,-1.478779257e0,5.669456175e0
1.266432758e1,-5.654247011e0,-7.942508664e0,1.308862679e-1,9.750440213e0
1.267429758e1,-9.180614478e0,-9.503343945e0,1.820544042e0,1.333835106e1
1.268426858e1,-1.140879482e1,-1.052584187e1,2.338450643e0,1.569784373e1
1.269423958e1,-1.235585431e1,-1.152402707e1,1.736197079e0,1.698483782e1
1.270421058e1,-1.237630319e1,-1.211830766e1,7.349888679e-1,1.733685294e1
1.271418158e1,-1.194164807e1,-1.235089353e1,-4.119079837e-1,1.718479554e1
1.272415258e1,-1.147299491e1,-1.245985990e1,-1.464450071e0,1.700065690e1
1.273412358e1,-1.103295919e1,-1.240274898e1,-2.199871486e0,1.674496358e1
1.274409358e1,-1.065547230e1,-1.242069057e1,-2.925836785e0,1.662447488e1
1.275406458e1,-1.047536169e1,-1.252618721e1,-3.757664607e0,1.675585306e1
1.276403558e1,-1.080701342e1,-1.244545938e1,-4.625737565e0,1.711953405e1
1.277400658e1,-1.160991097e1,-1.237067115e1,-5.100533815e0,1.771550120e1
1.278397758e1,-1.213667260e1,-1.273190278e1,-4.704689595e0,1.820808266e1
1.279394858e1,-1.278595912e1,-1.277795311e1,-3.761866416e0,1.846370697e1
1.280391858e1,-1.344344110e1,-1.256608627e1,-2.738859785e0,1.860467644e1
1.281388958e1,-1.385041198e1,-1.265701398e1,-2.247113773e0,1.889665143e1
1.282386058e1,-1.392915293e1,-1.287558290e1,-2.159632995e0,1.909099136e1
1.283383158e1,-1.389568347e1,-1.277397934e1,-2.314150200e0,1.901630507e1
1.284380258e1,-1.382854807e1,-1.273239044e1,-2.926536112e0,1.902385665e1
1.285377358e1,-1.368503167e1,-1.280651208e1,-3.815882410e0,1.912714830e1
1.286374358e1,-1.328530900e1,-1.304787228e1,-4.266032061e0,1.910354511e1
1.287371458e1,-1.303811445e1,-1.326384270e1,-4.483673614e0,1.913178717e1
1.288368558e1,-1.330644902e1,-1.351868073e1,-4.295329535e0,1.944906604e1
1.289365658e1,-1.381868733e1,-1.379308120e1,-3.681415161e0,1.986851847e1
1.290362758e1,-1.430340747e1,-1.376265463e1,-2.583573525e0,2.001681743e1
1.291359858e1,-1.473780648e1,-1.331824987e1,-1.289657060e0,1.990582665e1
1.292356858e1,-1.481691814e1,-1.291709345e1,-5.787712924e-1,1.966538437e1
1.293353958e1,-1.454121490e1,-1.271195676e1,-4.482532530e-1,1.931946444e1
1.294351058e1,-1.411943068e1,-1.239384717e1,-5.255894043e-1,1.879473370e1
1.295348158e1,-1.360283736e1,-1.196194610e1,-6.015077519e-1,1.812421448e1
1.296345258e1,-1.288467415e1,-1.129567809e1,-5.198385215e-1,1.714285285e1
1.297342358e1,-1.194620422e1,-1.056343245e1,-5.998389566e-1,1.595799822e1
1.298339458e1,-1.103876196e1,-9.697987813e0,-1.218671570e0,1.474416473e1
1.299336458e1,-1.020652074e1,-8.565561651e0,-1.870084138e0,1.345507810e1
1.300333558e1,-9.404703755e0,-7.605138354e0,-2.494809283e0,1.234952045e1
1.301330658e1,-8.648331912e0,-7.047165461e0,-3.208233327e0,1.160814141e1
1.302327758e1,-7.414414458e0,-7.070850778e0,-3.709526235e0,1.089637818e1
1.303324858e1,-5.449869282e0,-6.786559153e0,-3.511578689e0,9.385608409e0
1.304321958e1,-3.285608363e0,-4.371829242e0,-2.555807437e0,6.036577249e0
1.305318958e1,-4.002360642e-2,-4.891672441e-1,-1.521817980e0,1.599004830e0
1.306316058e1,5.132313432e0,3.539198597e0,-1.019791832e0,6.317162595e0
1.307313158e1,1.175766543e1,7.545509033e0,-8.500851685e-1,1.399642982e1
1.308310258e1,1.940997503e1,1.103361174e1,-1.159426850e-1,2.232713957e1
1.309307358e1,2.802275061e1,1.558121120e1,9.666523361e-1,3.207776662e1
1.310304458e1,4.297509377e1,2.101497725e1,6.061945292e0,4.822069197e1
1.311301558e1,6.390317204e1,2.495168068e1,1.294819479e1,6.981301823e1
1.312298558e1,6.937329842e1,2.592824288e1,1.480163819e1,7.552494161e1
1.313295658e1,6.869569968e1,1.690004719e1,1.447177454e1,7.220902304e1
1.314292758e1,6.890010431e1,6.765874043e0,1.225009104e1,7.030694244e1
1.315289858e1,5.716979449e1,6.720941699e0,1.034215860e1,5.848518363e1
1.316286958e1,3.182298938e1,4.725721152e0,8.197771786e0,3.319997825e1
1.317284058e1,1.629472822e1,2.436012314e0,6.025235302e0,1.754296965e1
1.318281158e1,7.656451764e0,2.438555852e0,5.154538114e0,9.546573806e0
1.319278158e1,5.777220973e0,2.264071721e0,4.391596924e0,7.601869933e0
1.320275258e1,6.919406723e0,2.740385324e-1,3.478796567e0,7.749536249e0
1.321272358e1,6.874144011e0,-1.021947700e0,2.639732523e0,7.434138873e0
1.322269458e1,5.540863068e0,-1.929487025e0,2.145605963e0,6.247216073e0
1.323266558e1,2.971795315e0,-3.117734801e0,1.810432744e0,4.672205519e0
1.324263658e1,-5.769973934e-2,-4.442996581e0,1.845105271e0,4.811232830e0
1.325260658e1,-2.806958213e0,-6.007089638e0,1.899865469e0,6.897363926e0
1.326257758e1,-5.175117974e0,-7.706985156e0,1.918755630e0,9.479508922e0
1.327254858e1,-7.546594861e0,-8.741992028e0,2.023210144e0,1.172462784e1
1.328251958e1,-9.509999830e0,-9.206383157e0,1.849371400e0,1.336479563e1
1.329249058e1,-1.078444317e1,-9.722753111e0,1.068923354e0,1.455948967e1
1.330246158e1,-1.161881511e1,-9.985715847e0,-2.056851661e-1,1.532167393e1
1.331243258e1,-1.218590615e1,-1.004437278e1,-1.811266850e0,1.589548429e1
1.332240258e1,-1.259395059e1,-9.889591130e0,-3.221447450e0,1.633368690e1
1.333237358e1,-1.297233561e1,-9.565238476e0,-4.220991544e0,1.666109384e1
1.334234458e1,-1.337926206e1,-9.144349462e0,-4.739346626e0,1.688446584e1
1.335231558e1,-1.373962011e1,-8.606858196e0,-4.997508799e0,1.696556109e1
1.336228658e1,-1.401806335e1,-8.164666606e0,-5.420940183e0,1.710422384e1
1.337225758e1,-1.392197138e1,-7.722611840e0,-5.297828227e0,1.677876648e1
1.338222758e1,-1.370897251e1,-7.396685700e0,-4.817764220e0,1.630514455e1
1.339219858e1,-1.348955458e1,-7.204601158e0,-4.020341415e0,1.581257429e1
1.340216958e1,-1.321130313e1,-6.998180997e0,-2.948024629e0,1.523823864e1
1.341214058e1,-1.290250816e1,-6.941084105e0,-1.925234930e0,1.477700561e1
1.342211158e1,-1.259646489e1,-7.168727905e0,-1.510286686e0,1.457197836e1
1.343208258e1,-1.256462212e1,-7.347669661e0,-9.630434346e-1,1.458716666e1
1.344205358e1,-1.272690692e1,-7.229067078e0,-9.791820422e-3,1.463672321e1
1.345202358e1,-1.294629445e1,-6.903895229e0,6.121093386e-1,1.468485571e1
1.346199458e1,-1.318063448e1,-6.731975394e0,1.086621414e0,1.484012682e1
1.347196558e1,-1.348840618e1,-6.554087307e0,1.660086504e0,1.508804325e1
1.348193658e1,-1.373434943e1,-6.354714210e0,1.939244274e0,1.525697923e1
1.349190717e1,-1.396154650e1,-6.037695134e0,1.603839798e0,1.529545179e1
1.350187817e1,-1.372706614e1,-5.578043758e0,1.410378821e0,1.488408833e1
1.351184817e1,-1.340192119e1,-5.111714276e0,1.104291115e0,1.438612433e1
1.352181917e1,-1.324931821e1,-4.949948716e0,4.736092285e-1,1.415170418e1
1.353179017e1,-1.360580658e1,-4.877954581e0,8.477759203e-2,1.445405136e1
1.354176117e1,-1.453034142e1,-4.640974240e0,6.018891731e-2,1.525362535e1
1.355173217e1,-1.581663180e1,-4.570786894e0,-6.187403005e-2,1.646395344e1
1.356170317e1,-1.664639380e1,-4.214766598e0,-2.514302365e-1,1.717352326e1
1.357167417e1,-1.635037149e1,-3.978795778e0,-5.829779986e-1,1.683761643e1
1.358164417e1,-1.532832147e1,-4.014069691e0,-6.794979874e-1,1.585975763e1
1.359161517e1,-1.335219413e1,-3.757754654e0,-3.734428795e-1,1.387592403e1
1.360158617e1,-1.063128822e1,-3.156146623e0,-3.581513873e-1,1.109566686e1
1.361155717e1,-7.849661311e0,-2.155379291e0,-7.081796034e-1,8.170946147e0
1.362152817e1,-5.418346943e0,-2.408526599e-1,-1.196664258e0,5.554142503e0
1.363149917e1,-3.214678713e0,2.271180182e0,-2.106092234e0,4.464083684e0
1.364147017e1,-3.735756844e-1,4.786470799e0,-3.102312770e0,5.716135585e0
1.365144017e1,2.838899213e0,7.683292823e0,-4.368017442e0,9.282882835e0
1.366141117e1,5.367715318e0,1.119342900e1,-5.580942807e0,1.361073632e1
1.367138217e1,8.948532057e0,1.347794435e1,-4.869024421e0,1.689492849e1
1.368135317e1,1.448973485e1,1.502678757e1,-2.274899011e0,2.099837913e1
1.369132417e1,2.186801585e1,1.728327838e1,2.427804285e0,2.797885027e1
1.370129517e1,2.860601037e1,2.143874135e1,7.146605549e0,3.645541703e1
1.371126517e1,3.704808935e1,2.373013184e1,8.470181285e0,4.480428610e1
1.372123617e1,4.694387034e1,2.501148834e1,8.370880360e0,5.384582760e1
1.373120717e1,5.963057882e1,2.727251074e1,1.000512626e1,6.633022180e1
1.374117817e1,6.906663301e1,2.236324695e1,1.195269697e1,7.357432687e1
1.375114917e1,6.917532105e1,1.279662444e1,1.301829472e1,7.154337592e1
1.376112017e1,6.317590004e1,4.008645229e0,1.452681789e1,6.494837966e1
1.377109117e1,4.571782149e1,1.819961952e0,1.434853044e1,4.795113960e1
1.378106217e1,3.236559696e1,-2.785920516e-1,1.180127631e1,3.445111903e1
1.379103217e1,2.436332215e1,-4.840676535e0,7.694570932e0,2.600403886e1
1.380100317e1,1.832846350e1,-7.710263105e0,2.923110813e0,2.009789313e1
1.381097417e1,1.309454943e1,-8.822613437e0,-1.214410558e0,1.583605146e1
1.382094517e1,8.305982698e0,-9.431364720e0,-4.721709670e0,1.342514548e1
1.383091617e1,4.468069734e0,-1.040573772e1,-6.585038373e0,1.309983798e1
1.384088717e1,5.302459806e-1,-1.158593037e1,-6.967355061e0,1.352992904e1
1.385085717e1,-3.970693291e0,-1.270002844e1,-6.412877049e0,1.477098912e1
1.386082817e1,-8.216059538e0,-1.384950917e1,-4.893306153e0,1.683024016e1
1.387079917e1,-1.174210365e1,-1.508167422e1,-3.540708933e0,1.943889182e1
1.388077017e1,-1.439292718e1,-1.600749895e1,-2.759350183e0,2.170277376e1
1.389074117e1,-1.604040708e1,-1.623360610e1,-2.215113569e0,2.292883239e1
1.390071217e1,-1.632197508e1,-1.634354779e1,-2.116044195e0,2.319474225e1
1.391068317e1,-1.555358428e1,-1.660183334e1,-2.362703140e0,2.287175595e1
1.392065317e1,-1.460796087e1,-1.653873019e1,-2.767206502e0,2.223914452e1
1.393062417e1,-1.389278909e1,-1.596726543e1,-2.770123093e0,2.134564911e1
1.394059517e1,-1.378162534e1,-1.479877189e1,-2.513996336e0,2.037785622e1
1.395056617e1,-1.411907751e1,-1.333922266e1,-2.208104951e0,1.954888586e1
1.396053717e1,-1.444607018e1,-1.195559018e1,-1.822171322e0,1.883999438e1
1.397050817e1,-1.466087817e1,-1.065074658e1,-1.222596660e0,1.816244736e1
1.398047917e1,-1.455580488e1,-9.587942630e0,-5.276407537e-1,1.743784689e1
1.399044917e1,-1.420545609e1,-8.673696549e0,1.613457298e-1,1.664493998e1
1.400042017e1,-1.362235303e1,-7.815682556e0,1.078368946e0,1.574218141e1
1.401039117e1,-1.279111519e1,-7.255229275e0,1.959006840e0,1.483538633e1
1.402036217e1,-1.170579712e1,-6.951315563e0,2.704824605e0,1.388029360e1
1.403033317e1,-1.057042338e1,-6.900933614e0,3.413324709e0,1.307698439e1
1.404030417e1,-9.810002339e0,-6.557413203e0,4.359574063e0,1.257941572e1
1.405027517e1,-9.414566254e0,-6.334840693e0,5.851121593e0,1.276714096e1
1.406024517e1,-9.566643562e0,-5.854104257e0,7.764221796e0,1.364090707e1
1.407021617e1,-1.023075511e1,-4.928662512e0,9.252494885e0,1.464816459e1
1.408018717e1,-1.111497223e1,-3.669714590e0,9.930520470e0,1.535007002e1
1.409015817e1,-1.209146309e1,-2.354771976e0,9.674367986e0,1.566339129e1
1.410012917e1,-1.325144543e1,-7.315197149e-1,8.794696491e0,1.592113732e1
1.411010017e1,-1.451380900e1,1.440278558e0,7.944392052e0,1.660838400e1
1.412007017e1,-1.530969925e1,3.528224835e0,7.094410379e0,1.723850111e1
1.413004117e1,-1.559476271e1,5.330356287e0,6.188348061e0,1.760411809e1
1.414001217e1,-1.525432378e1,6.068167314e0,4.848600097e0,1.711800139e1
1.414998317e1,-1.422629907e1,5.314805617e0,3.862584121e0,1.567017231e1
1.415995417e1,-1.277455471e1,3.956656466e0,3.442088624e0,1.380914018e1
1.416992517e1,-1.140245410e1,2.995979399e0,2.762415293e0,1.210878980e1
1.417989617e1,-1.052371816e1,2.279539361e0,2.048705320e0,1.096093687e1
1.418986617e1,-1.034358182e1,1.506756430e0,1.967232556e0,1.063625891e1
1.419983717e1,-1.037029891e1,1.373496631e0,2.406081294e0,1.073400297e1
1.420980817e1,-1.011028259e1,2.304351144e0,3.106042124e0,1.082475616e1
1.421977917e1,-9.432323663e0,3.059049221e0,2.710872672e0,1.027985129e1
1.422975017e1,-7.329248593e0,3.207409455e0,1.101777982e0,8.075845161e0
1.423972117e1,-4.692767707e0,4.161873854e0,-6.628415358e-1,6.307346639e0
1.424969217e1,-1.658888410e0,6.555743823e0,-1.708286272e0,6.974806794e0
1.425966217e1,2.575198558e0,9.775585628e0,-1.416792047e0,1.020789017e1
1.426963317e1,8.611820143e0,1.357571330e1,8.261467407e-1,1.609801094e1
1.427960417e1,1.720507889e1,1.563053715e1,5.219747432e0,2.382381569e1
1.428957517e1,2.640796482e1,1.538507103e1,1.055337641e1,3.233349301e1
1.429954617e1,3.412435756e1,1.443006752e1,1.546230924e1,4.014700032e1
1.430951717e1,4.163232513e1,1.331726754e1,1.906106583e1,4.768568277e1
1.431948817e1,5.003947051e1,1.198751948e1,2.139596545e1,5.572644408e1
1.432945817e1,5.706395521e1,9.639709200e0,2.099471548e1,6.156295197e1
1.433942917e1,5.802590638e1,7.882308655e0,1.826203211e1,6.134034902e1
1.434940017e1,5.180370177e1,7.994892114e0,1.270567919e1,5.393492469e1
1.435937117e1,4.224599276e1,6.753681428e0,6.388119353e0,4.325672417e1
1.436934217e1,3.337762369e1,4.905115775e0,1.712395695e0,3.377955332e1
1.437931317e1,2.690643996e1,3.420032342e0,-2.970736384e-2,2.712294259e1
1.438928417e1,2.251623584e1,1.901408111e0,-1.436725205e-1,2.259683321e1
1.439925517e1,1.930373814e1,5.069003874e-1,3.654870848e-1,1.931385086e1
1.440922517e1,1.634424595e1,-5.514321971e-1,9.684379296e-1,1.638219537e1
1.441919617e1,1.310650348e1,-1.380315362e0,1.373136735e0,1.325032862e1
1.442916717e1,9.555421586e0,-2.337715064e0,1.590177194e0,9.964921320e0
1.443913817e1,6.011300803e0,-3.628443480e0,1.691886733e0,7.222452502e0
1.444910917e1,2.690647153e0,-5.215208239e0,1.654017679e0,6.097028257e0
1.445908017e1,-1.614930797e-1,-6.888354499e0,1.205769542e0,6.994954461e0
1.446905117e1,-2.881866308e0,-8.369251910e0,1.309073909e-1,8.852494999e0
1.447902117e1,-5.475037453e0,-9.692272745e0,-8.032296753e-1,1.116070625e1
1.448899183e1,-7.863301111e0,-1.064632725e1,-1.257956527e0,1.329504581e1
1.449896283e1,-9.762629367e0,-1.128124483e1,-1.310263964e0,1.497638837e1
1.450893383e1,-1.072202063e1,-1.195714670e1,-1.273960941e0,1.611080570e1
1.451890483e1,-1.097050625e1,-1.258127967e1,-1.296383843e0,1.674279596e1
1.452887583e1,-1.074339337e1,-1.297306066e1,-1.464161510e0,1.690753007e1
1.453884683e1,-1.047449864e1,-1.308064709e1,-1.809467661e0,1.685504741e1
1.454881683e1,-1.026106474e1,-1.307876546e1,-2.201495404e0,1.676872498e1
1.455878783e1,-1.012025677e1,-1.288865026e1,-2.606452510e0,1.659308583e1
1.456875883e1,-1.060500849e1,-1.213674042e1,-2.987756460e0,1.639186877e1
1.457872983e1,-1.108785402e1,-1.134104898e1,-3.020148865e0,1.614562473e1
1.458870083e1,-1.135155058e1,-1.096780951e1,-2.918327790e0,1.605201492e1
1.459867183e1,-1.182815830e1,-1.037460013e1,-2.883582758e0,1.599539640e1
1.460864283e1,-1.223084668e1,-9.581446373e0,-2.455531197e0,1.572982386e1
1.461861283e1,-1.243143892e1,-8.885080411e0,-1.791625760e0,1.538490333e1
1.462858383e1,-1.241607361e1,-8.271705735e0,-1.092304323e0,1.495904838e1
1.463855483e1,-1.205960396e1,-7.802142743e0,-2.281580624e-1,1.436521963e1
1.464852583e1,-1.155685334e1,-7.191252549e0,9.086669603e-1,1.364187113e1
1.465849683e1,-1.080129250e1,-6.664724228e0,2.302433842e0,1.289913448e1
1.466846783e1,-9.927192235e0,-6.264413905e0,3.672396123e0,1.229953335e1
1.467843883e1,-9.393039145e0,-5.665416362e0,4.693080825e0,1.193109947e1
1.468840883e1,-9.102355928e0,-5.080659714e0,5.108526374e0,1.160874792e1
1.469837983e1,-8.916646020e0,-4.526961136e0,4.916751734e0,1.114335681e1
1.470835083e1,-8.989153833e0,-4.010601415e0,4.663561741e0,1.089213562e1
1.471832183e1,-9.362618421e0,-3.457098134e0,4.621142238e0,1.099841383e1
1.472829283e1,-1.003192405e1,-2.622526214e0,4.958127217e0,1.149348378e1
1.473826383e1,-1.100539424e1,-1.725195543e0,5.600698210e0,1.246847314e1
1.474823483e1,-1.211498294e1,-1.085811574e0,6.351904038e0,1.372218945e1
1.475820483e1,-1.321641944e1,-4.358625644e-1,6.995578401e0,1.496000789e1
1.476817583e1,-1.400026910e1,1.124074584e-1,7.839742679e0,1.604623743e1
1.477814683e1,-1.395634248e1,1.246296009e-1,8.737799574e0,1.646645588e1
1.478811783e1,-1.352066410e1,-3.052772820e-2,9.522142743e0,1.653724560e1
1.479808883e1,-1.276515472e1,-6.248334646e-3,1.004732211e1,1.624493447e1
1.480805983e1,-1.179675875e1,3.382818907e-1,9.673383899e0,1.525949893e1
1.481803083e1,-1.104069739e1,5.717264208e-1,8.742199019e0,1.409432204e1
1.482800183e1,-1.063805695e1,6.920378530e-1,7.749680940e0,1.317970890e1
1.483797183e1,-9.801847812e0,1.078776789e0,7.037668998e0,1.211481592e1
1.484794283e1,-8.834884404e0,2.872019304e0,6.568240492e0,1.137741010e1
1.485791383e1,-6.906364508e0,6.341181414e0,6.237990922e0,1.126148228e1
1.486788483e1,-3.251063597e0,1.144355652e1,5.688780667e0,1.318660782e1
1.487785583e1,3.511656457e0,1.654824712e1,4.631116419e0,1.753919762e1
1.488782683e1,1.485850938e1,2.005731560e1,4.571971833e0,2.537664549e1
1.489779783e1,2.825848696e1,2.220389395e1,5.800901027e0,3.640337133e1
1.490776783e1,4.001438653e1,2.354230057e1,7.631792886e0,4.704928594e1
1.491773883e1,4.873862875e1,2.376470526e1,8.742057517e0,5.492393575e1
1.492770983e1,5.485634128e1,2.347398638e1,1.073627848e1,6.062601661e1
1.493768083e1,5.999232968e1,2.185248097e1,1.415577580e1,6.539875025e1
1.494765183e1,6.239756547e1,1.546617308e1,1.591965039e1,6.622759210e1
1.495762283e1,5.865190461e1,6.434077883e0,1.530672068e1,6.095686156e1
1.496759383e1,4.971458985e1,-1.138664264e0,1.389696050e1,5.163295955e1
1.497756483e1,3.925443561e1,-5.456234561e0,1.151522584e1,4.127083276e1
1.498753483e1,3.043883649e1,-7.538939102e0,7.376563092e0,3.221446962e1
1.499750583e1,2.317795588e1,-9.243353348e0,2.290896262e0,2.505804114e1
1.500747683e1,1.722272461e1,-1.042677132e1,-3.404607972e0,2.041889220e1
1.501744783e1,1.233638542e1,-1.071944786e1,-1.040206099e1,1.937255379e1
1.502741883e1,7.228011070e0,-9.997901444e0,-1.688372644e1,2.091082006e1
1.503738983e1,2.728564008e0,-8.803729854e0,-2.074634213e1,2.270157336e1
1.504736083e1,1.266308105e-1,-7.776942413e0,-2.174967288e1,2.309859605e1
1.505733083e1,-2.230886434e0,-6.466483737e0,-2.137466990e1,2.244256624e1
1.506730183e1,-4.148953262e0,-6.753758027e0,-1.845300101e1,2.008333406e1
1.507727283e1,-4.771716812e0,-7.709027588e0,-1.088737521e1,1.416803891e1
1.508724383e1,-5.180106234e0,-7.806167382e0,-5.575951624e0,1.090233857e1
1.509721483e1,-4.981693250e0,-9.116462921e0,-2.610140934e0,1.071167585e1
1.510718583e1,-5.296290994e0,-1.029855475e1,1.798578976e0,1.171946306e1
1.511715683e1,-5.794311215e0,-1.127151038e1,4.742191589e0,1.353179108e1
1.512712783e1,-6.866424517e0,-1.183899553e1,7.318103800e0,1.551980167e1
1.513709783e1,-8.229498194e0,-1.219187031e1,8.925380591e0,1.720548636e1
1.514706883e1,-1.008921156e1,-1.253638826e1,8.946891328e0,1.841195495e1
1.515703983e1,-1.233457512e1,-1.250481563e1,8.087646496e0,1.933706760e1
1.516701083e1,-1.475330862e1,-1.172702252e1,6.535409546e0,1.994729932e1
1.517698183e1,-1.691006113e1,-1.044636885e1,4.506123121e0,2.038092086e1
1.518695283e1,-1.855954780e1,-8.867994263e0,2.911951987e0,2.077444587e1
1.519692383e1,-1.921257888e1,-7.829358609e0,1.915419501e0,2.083484762e1
1.520689383e1,-1.896767761e1,-7.585833187e0,1.508918730e0,2.048400582e1
1.521686483e1,-1.804402686e1,-8.111553422e0,1.398970903e0,1.983283449e1
1.522683583e1,-1.698179711e1,-8.883982304e0,2.275589567e0,1.929986742e1
1.523680683e1,-1.646260880e1,-9.513490033e0,3.497761719e0,1.933283006e1
1.524677783e1,-1.636801488e1,-9.886573967e0,4.254364235e0,1.958968787e1
1.525674883e1,-1.658209314e1,-9.807823666e0,4.612996482e0,1.981007205e1
1.526671983e1,-1.696143476e1,-9.642489551e0,4.606355215e0,2.004710409e1
1.527669083e1,-1.736036339e1,-9.447875503e0,4.492064076e0,2.026877422e1
1.528666083e1,-1.766732116e1,-8.959643521e0,4.526905003e0,2.031999798e1
1.529663183e1,-1.754287370e1,-8.388968137e0,4.515031062e0,1.996278311e1
1.530660283e1,-1.716520906e1,-7.896927279e0,4.247525039e0,1.936613879e1
1.531657383e1,-1.647280283e1,-7.462686147e0,3.972181700e0,1.851548393e1
1.532654483e1,-1.559353714e1,-7.042811624e0,3.808006210e0,1.752884786e1
1.533651583e1,-1.471227052e1,-6.675093096e0,3.584906574e0,1.654869562e1
1.534648683e1,-1.395789550e1,-6.325184017e0,3.564725494e0,1.573334254e1
1.535645683e1,-1.344471462e1,-6.005782785e0,3.772633772e0,1.520074155e1
1.536642783e1,-1.293151152e1,-5.609456170e0,3.966133633e0,1.464309409e1
1.537639883e1,-1.213803851e1,-5.283411916e0,3.911253128e0,1.380377924e1
1.538636983e1,-1.123142070e1,-4.838765080e0,3.780450622e0,1.280040099e1
1.539634083e1,-1.001680666e1,-4.330602863e0,3.409236628e0,1.143299747e1
1.540631183e1,-8.638092268e0,-3.527629589e0,2.600667275e0,9.686293348e0
1.541628283e1,-6.897452182e0,-2.296588965e0,1.518949921e0,7.426733895e0
1.542625283e1,-4.946418167e0,-3.865641046e-1,4.274173578e-1,4.979876514e0
1.543622383e1,-2.679573112e0,2.360660123e0,-2.290214038e-1,3.578446462e0
1.544619483e1,1.486228318e0,7.018342781e0,-2.543562929e-1,7.178489195e0
1.545616583e1,1.051415796e1,9.894403389e0,-4.984472139e-1,1.444628622e1
1.546613683e1,2.243699437e1,9.990908175e0,4.571152930e-1,2.456513621e1
1.547610783e1,3.323674321e1,1.000779493e1,6.254896392e0,3.526982829e1
1.548607883e1,4.110133246e1,1.079561486e1,1.393160993e1,4.472085180e1
1.549605404e1,4.419726943e1,1.130688838e1,2.031996551e1,4.994141916e1
1.550602504e1,4.837945066e1,9.302754042e0,3.009203345e1,5.772904777e1
1.551599504e1,5.495125328e1,4.296334964e0,3.791170439e1,6.689840104e1
1.552596604e1,5.884331906e1,1.511943787e-1,4.055244731e1,7.146369737e1
1.553593704e1,5.473878885e1,-1.512940445e0,3.756280571e1,6.640473151e1
1.554590804e1,4.456883426e1,-1.017090126e0,3.106153455e1,5.433446777e1
1.555587904e1,3.430786190e1,-7.156149960e-1,2.523103726e1,4.259280144e1
1.556585004e1,2.795027320e1,-1.653886701e0,2.249189271e1,3.591431958e1
1.557582104e1,2.486995532e1,-3.170712329e0,2.149674105e1,3.302541400e1
1.558579104e1,2.259987207e1,-3.628241166e0,2.026401701e1,3.057038987e1
1.559576204e1,2.033990685e1,-3.342688297e0,1.573311836e1,2.593099283e1
1.560573304e1,1.781307354e1,-3.341466229e0,8.710032901e0,2.010809933e1
1.561570404e1,1.525271229e1,-3.363557594e0,2.268005143e0,1.578298448e1
1.562567504e1,1.203975383e1,-3.611826570e0,-2.186481509e0,1.275859180e1
1.563564604e1,8.505032444e0,-4.501225201e0,-4.901356600e0,1.079906948e1
1.564561704e1,4.969574311e0,-5.501495519e0,-6.645454729e0,9.956163434e0
1.565558804e1,1.829575651e0,-6.253671985e0,-7.847789032e0,1.020017417e1
1.566555804e1,-7.023494178e-1,-6.743970957e0,-9.004433777e0,1.127183510e1
1.567552904e1,-2.504936076e0,-6.938648155e0,-9.483276300e0,1.201466073e1
1.568550004e1,-3.814603039e0,-6.901797833e0,-9.720371540e0,1.251685394e1
1.569547104e1,-4.552847637e0,-6.752307917e0,-1.014172892e1,1.300679627e1
1.570544204e1,-4.712025804e0,-7.076478138e0,-1.110681186e1,1.398717268e1
1.571541304e1,-4.436728073e0,-7.597051654e0,-1.222768802e1,1.506373473e1
1.572538404e1,-4.009966700e0,-7.933848352e0,-1.301949457e1,1.576493011e1
1.573535504e1,-3.757791492e0,-8.372373154e0,-1.381509480e1,1.658536926e1
1.574532504e1,-4.139356227e0,-8.625324873e0,-1.430324141e1,1.720794044e1
1.575529604e1,-5.037922999e0,-8.964181545e0,-1.460660549e1,1.786309443e1
1.576526704e1,-6.513087215e0,-9.133272496e0,-1.469518846e1,1.848744265e1
1.577523804e1,-7.713575553e0,-9.054796430e0,-1.580460993e1,1.978065421e1
1.578520904e1,-8.242433989e0,-9.687652275e0,-1.799930619e1,2.204003965e1
1.579518004e1,-8.996597339e0,-1.010438158e1,-1.950853804e1,2.374068969e1
1.580515104e1,-9.688772017e0,-9.846037560e0,-2.070157117e1,2.488718160e1
1.581512204e1,-9.981456735e0,-1.003632701e1,-2.189104219e1,2.606866062e1
1.582509204e1,-1.034275502e1,-1.089589110e1,-2.203592216e1,2.666973734e1
1.583506304e1,-1.110149674e1,-1.156273330e1,-2.052609389e1,2.604343606e1
1.584503404e1,-1.184914629e1,-1.207356711e1,-1.825201700e1,2.488592805e1
1.585500504e1,-1.268365039e1,-1.274083031e1,-1.616770798e1,2.417847236e1
1.586497604e1,-1.342736593e1,-1.328949560e1,-1.408594251e1,2.356519946e1
1.587494704e1,-1.376860476e1,-1.351864564e1,-1.205970219e1,2.275444295e1
1.588491804e1,-1.362541931e1,-1.376143607e1,-1.064890939e1,2.210041731e1
1.589488804e1,-1.330842070e1,-1.397792572e1,-9.844897352e0,2.166606732e1
1.590485904e1,-1.321146919e1,-1.391011322e1,-9.389592796e0,2.135880663e1
1.591483004e1,-1.316058438e1,-1.330748631e1,-9.275075662e0,2.088820724e1
1.592480104e1,-1.272944812e1,-1.259061300e1,-9.871757122e0,2.044539004e1
1.593477204e1,-1.229402819e1,-1.189070713e1,-1.073440036e1,2.019305317e1
1.594474304e1,-1.196290270e1,-1.119433532e1,-1.122828776e1,1.986198959e1
1.595471404e1,-1.177341549e1,-1.065620788e1,-1.109640615e1,1.937261749e1
1.596468504e1,-1.170823073e1,-1.016493067e1,-1.024783717e1,1.858565708e1
1.597465504e1,-1.158159408e1,-9.450648837e0,-8.975366099e0,1.743574723e1
1.598462604e1,-1.151936333e1,-8.649390843e0,-8.118081838e0,1.653514276e1
1.599459704e1,-1.154772934e1,-7.882099324e0,-7.364841179e0,1.580248171e1
1.600456804e1,-1.129913497e1,-7.182263625e0,-6.148844857e0,1.473308029e1
1.601453904e1,-1.114923107e1,-6.532419865e0,-4.334806427e0,1.362968853e1
1.602451004e1,-1.049182745e1,-5.863783153e0,-2.014634764e0,1.218692534e1
1.603448104e1,-8.860508657e0,-4.889869160e0,5.774593234e-2,1.012041346e1
1.604445204e1,-6.165236356e0,-3.006681266e0,2.748405949e0,7.389452404e0
1.605442204e1,-8.970523435e-1,-6.954156433e-1,7.709158566e0,7.792267425e0
1.606439304e1,6.679370919e0,3.322172464e0,1.433012925e1,1.615560058e1
1.607436404e1,1.768198013e1,8.068478739e0,2.019627351e1,2.802931027e1
1.608433504e1,3.165103914e1,1.061695201e1,2.280457140e1,4.042964785e1
1.609430604e1,4.306844808e1,1.140246462e1,2.180629264e1,4.960263922e1
1.610427704e1,5.260927033e1,1.170957676e1,2.332343461e1,5.872675808e1
1.611424804e1,6.504733649e1,8.692760811e0,3.400069363e1,7.391053540e1
1.612421904e1,6.975835862e1,5.799586573e0,4.335498503e1,8.233783170e1
1.613419004e1,6.929636777e1,3.623250276e0,4.182671465e1,8.102214875e1
1.614416004e1,6.401665948e1,4.823490399e0,3.444598951e1,7.285550730e1
1.615413104e1,5.039834922e1,5.771744471e0,2.598490006e1,5.699580396e1
1.616410204e1,4.034294859e1,3.921624627e0,2.022077100e1,4.529693390e1
1.617407304e1,3.204097358e1,9.583785260e-1,1.382111977e1,3.490796226e1
1.618404404e1,2.241709981e1,-3.272524925e0,5.990256089e0,2.343328725e1
1.619401504e1,1.178939593e1,-5.536041453e0,-3.746477714e-1,1.302988766e1
1.620398604e1,3.486375436e0,-6.990138736e0,-5.283811281e0,9.430562809e0
1.621395704e1,-1.499894430e0,-7.534530886e0,-9.478299150e0,1.220069645e1
1.622392704e1,-4.264881914e0,-5.780608850e0,-1.283068798e1,1.470480229e1
1.623389804e1,-5.142723230e0,-3.597630408e0,-1.693124442e1,1.805706467e1
1.624386904e1,-5.030629767e0,-4.412224147e0,-1.810571382e1,1.930263792e1
1.625384004e1,-5.585523516e0,-6.030422952e0,-1.284258472e1,1.524782136e1
1.626381104e1,-6.857729123e0,-7.796030064e0,-3.451578655e0,1.094166023e1
1.627378204e1,-7.323598428e0,-1.049354653e1,4.595565932e0,1.359664808e1
1.628375304e1,-7.898611861e0,-1.282822279e1,1.045940814e1,1.833986336e1
1.629372404e1,-8.259330688e0,-1.424197195e1,1.440407782e1,2.187527751e1
1.630369404e1,-8.409035781e0,-1.522236992e1,1.667572344e1,2.409382039e1
1.631366504e1,-7.999722499e0,-1.551413662e1,1.777552857e1,2.491291655e1
1.632363604e1,-7.263991327e0,-1.486176277e1,1.712436392e1,2.380927135e1
1.633360704e1,-7.581030284e0,-1.380000548e1,1.587401287e1,2.235836434e1
1.634357804e1,-8.826628720e0,-1.229852353e1,1.404730177e1,2.065162808e1
1.635354904e1,-9.827782552e0,-1.006052512e1,1.204480231e1,1.851693113e1
1.636352004e1,-9.911186067e0,-7.525678201e0,1.158012526e1,1.699902181e1
1.637349104e1,-9.207760177e0,-5.754294625e0,1.127862177e1,1.565573579e1
1.638346204e1,-7.268811772e0,-4.353922144e0,1.123400517e1,1.407107440e1
1.639343204e1,-5.098968515e0,-3.306865915e0,1.154122373e1,1.304356881e1
1.640340304e1,-3.065497238e0,-2.505084303e0,1.236893570e1,1.298704320e1
1.641337404e1,-8.692155039e-1,-2.017468179e0,1.336536439e1,1.354469191e1
1.642334504e1,1.344267277e0,-1.564504994e0,1.398116625e1,1.413250650e1
1.643331604e1,2.685484062e0,-8.903694145e-1,1.492462151e1,1.519042164e1
1.644328704e1,2.926211591e0,-7.643563624e-1,1.617071228e1,1.645110606e1
1.645325804e1,2.467193468e0,-8.021932563e-1,1.761643752e1,1.780644346e1
1.646322904e1,1.754558652e0,-9.269994432e-1,1.889874010e1,1.900263617e1
1.647319904e1,9.552901728e-1,-1.219189049e0,1.940939616e1,1.947109808e1
1.648317004e1,-6.427902639e-2,-1.382363057e0,1.978874830e1,1.983707687e1
1.649314067e1,-8.960558318e-1,-1.624405040e0,2.010569780e1,2.019110427e1
1.650311167e1,-1.288607339e0,-2.110622072e0,2.039260430e1,2.054199466e1
1.651308267e1,-1.599048589e0,-2.393827869e0,2.047075351e1,2.067218221e1
1.652305367e1,-1.501405058e0,-2.939573649e0,1.986710333e1,2.013944153e1
1.653302467e1,-1.209296291e0,-3.292051702e0,1.874528928e1,1.907054987e1
1.654299567e1,-1.134087356e0,-3.168859931e0,1.735496290e1,1.767830775e1
1.655296567e1,-1.770225828e0,-2.909914524e0,1.579051580e1,1.615368971e1
1.656293667e1,-3.016210181e0,-2.932770706e0,1.373523587e1,1.436507474e1
1.657290767e1,-4.309138904e0,-3.273652853e0,1.121923744e1,1.245619404e1
